time_ms,timestamp,version,voltage,audio_gain,cc,refX_raw,refY_raw,refZ_raw,tipX_raw,tipY_raw,tipZ_raw,refX_cal,refY_cal,refZ_cal,tipX_cal,tipY_cal,tipZ_cal,calOffsetX,calOffsetY,calOffsetZ,gradX,gradY,gradZ,mag,nT,accX,accY,accZ,gyrX,gyrY,gyrZ,freq,is_muted,QW,QX,QY,QZ,Azimuth,Elevation,Declination
252624,2026-08-29_07-36-27.626-240,v3.5.9,3.52,12.0,400,1317,4534,6236,1025,4784,7021,162,4011,6248,904,4617,7089,0,0,0,742,606,841,1274.8,8386.8,-0.233,0.126,1.046,-11.078,-2.656,-3.437,1107.3,1,0.2360,-0.6452,0.1974,-0.6993,264.5,-54.0,0.0
252679,2026-08-29_07-36-27.681-240,v3.5.9,3.52,12.0,400,1287,4523,6261,1026,4767,7039,131,3998,6270,905,4600,7108,0,0,0,774,602,838,1289.9,8485.9,-0.239,0.104,1.063,-0.013,-3.641,-2.897,1119.9,1,0.2362,-0.6421,0.1963,-0.7024,263.8,-54.0,0.0
252709,2026-08-29_07-36-27.711-240,v3.5.9,3.52,12.0,400,1277,4512,6285,968,4749,7061,118,3984,6294,848,4581,7132,0,0,0,730,597,838,1261.6,8299.8,-0.230,0.156,1.042,3.550,-4.547,-2.194,1096.2,1,0.2385,-0.6373,0.1917,-0.7073,262.7,-54.1,0.0
252738,2026-08-29_07-36-27.740-240,v3.5.9,3.52,12.0,400,1294,4495,6288,968,4749,7061,133,3966,6300,848,4581,7132,0,0,0,715,615,832,1257.6,8274.0,-0.228,0.175,1.032,-1.585,-4.531,-2.621,1092.9,1,0.2370,-0.6338,0.1920,-0.7108,261.7,-54.1,0.0
252782,2026-08-29_07-36-27.785-240,v3.5.9,3.52,12.0,400,1294,4495,6288,1016,4734,7060,133,3966,6300,895,4566,7131,0,0,0,762,600,831,1277.2,8402.5,-0.226,0.159,1.034,-5.493,-6.172,-3.107,1109.3,1,0.2324,-0.6300,0.1967,-0.7144,260.4,-54.0,0.0
252812,2026-08-29_07-36-27.813-240,v3.5.9,3.52,12.0,400,1299,4471,6296,981,4687,7106,136,3939,6311,861,4517,7179,0,0,0,725,578,868,1270.1,8355.9,-0.225,0.159,1.053,-1.979,-7.062,-2.989,1103.4,1,0.2303,-0.6243,0.1983,-0.7196,258.8,-53.8,0.0
252851,2026-08-29_07-36-28.854-240,v3.5.9,3.52,12.0,400,1286,4433,6323,981,4687,7106,120,3897,6340,861,4517,7179,0,0,0,741,620,839,1279.6,8418.5,-0.196,0.172,1.042,1.452,-7.812,-3.797,1111.4,1,0.2314,-0.6167,0.1978,-0.7260,257.1,-53.5,0.0
252889,2026-08-29_07-36-28.891-240,v3.5.9,3.52,12.0,400,1286,4433,6323,992,4652,7138,120,3897,6340,872,4481,7213,0,0,0,752,584,873,1291.8,8498.5,-0.211,0.160,1.033,0.846,-9.188,-4.566,1121.6,1,0.2323,-0.6077,0.1987,-0.7329,255.2,-53.0,0.0
252921,2026-08-29_07-36-28.924-240,v3.5.9,3.52,12.0,400,1315,4390,6339,1026,4579,7176,144,3848,6363,906,4406,7254,0,0,0,762,558,891,1298.4,8542.2,-0.185,0.145,1.053,5.539,-9.641,-4.876,1127.1,1,0.2370,-0.5968,0.1956,-0.7412,253.3,-52.4,0.0
252966,2026-08-29_07-36-28.969-240,v3.5.9,3.52,12.0,400,1343,4345,6379,1026,4579,7176,163,3796,6412,906,4406,7254,0,0,0,743,610,842,1277.9,8407.5,-0.184,0.160,1.068,10.676,-10.594,-4.540,1109.9,1,0.2448,-0.5834,0.1878,-0.7513,251.2,-51.7,0.0
252997,2026-08-29_07-36-28.000-240,v3.5.9,3.52,12.0,400,1343,4345,6379,1051,4517,7212,163,3796,6412,930,4342,7293,0,0,0,767,546,881,1289.4,8482.9,-0.188,0.166,1.080,8.770,-10.688,-4.811,1119.6,1,0.2515,-0.5702,0.1819,-0.7606,249.3,-50.9,0.0
253026,2026-08-29_07-36-28.027-240,v3.5.9,3.52,12.0,400,1396,4272,6397,1051,4517,7212,208,3715,6443,930,4342,7293,0,0,0,722,627,850,1279.4,8417.2,-0.169,0.177,1.042,5.456,-11.234,-4.269,1111.2,1,0.2550,-0.5575,0.1789,-0.7695,247.2,-50.1,0.0
253054,2026-08-29_07-36-28.056-240,v3.5.9,3.52,12.0,400,1440,4220,6437,1106,4444,7292,242,3654,6494,984,4265,7377,0,0,0,742,611,883,1305.2,8586.9,-0.186,0.172,1.067,3.208,-12.250,-3.819,1132.8,1,0.2562,-0.5444,0.1780,-0.7786,245.0,-49.2,0.0
253097,2026-08-29_07-36-28.100-240,v3.5.9,3.52,12.0,400,1440,4220,6437,1127,4352,7323,242,3654,6494,1005,4172,7411,0,0,0,763,518,917,1300.5,8556.1,-0.165,0.175,1.085,6.318,-12.844,-4.026,1128.9,1,0.2596,-0.5296,0.1744,-0.7885,242.9,-48.1,0.0
253143,2026-08-29_07-36-28.144-240,v3.5.9,3.52,12.0,400,1478,4144,6489,1127,4352,7323,269,3567,6559,1005,4172,7411,0,0,0,736,605,852,1278.1,8408.8,-0.118,0.194,1.130,6.352,-12.438,-3.342,1110.1,1,0.2623,-0.5152,0.1700,-0.7981,240.8,-47.1,0.0
253169,2026-08-29_07-36-28.171-240,v3.5.9,3.52,12.0,400,1516,4063,6516,1171,4244,7365,299,3477,6598,1048,4061,7457,0,0,0,749,584,859,1280.6,8425.0,-0.127,0.205,1.124,-0.621,-11.781,-3.701,1112.2,1,0.2610,-0.5034,0.1727,-0.8054,239.0,-46.1,0.0
253225,2026-08-29_07-36-28.226-240,v3.5.9,3.52,12.0,400,1548,3989,6562,1166,4146,7402,321,3393,6655,1044,3961,7498,0,0,0,723,568,843,1247.4,8206.6,-0.124,0.212,1.135,-18.217,-11.203,-3.772,1084.3,1,0.2486,-0.4978,0.1928,-0.8082,237.3,-45.1,0.0
253258,2026-08-29_07-36-28.260-240,v3.5.9,3.52,12.0,400,1548,3989,6562,1166,4146,7402,321,3393,6655,1044,3961,7498,0,0,0,723,568,843,1247.4,8206.6,-0.111,0.149,1.158,-18.169,-10.703,-3.782,1084.3,1,0.2363,-0.4924,0.2126,-0.8103,235.7,-44.2,0.0
253289,2026-08-29_07-36-28.291-240,v3.5.9,3.52,12.0,400,1459,3914,6614,1130,4042,7452,231,3312,6701,1009,3855,7553,0,0,0,778,543,852,1275.2,8389.2,-0.110,0.118,1.216,-9.433,-9.656,-2.619,1107.6,1,0.2284,-0.4855,0.2224,-0.8140,234.2,-43.5,0.0
253318,2026-08-29_07-36-28.320-240,v3.5.9,3.52,12.0,400,1417,3859,6645,1130,4042,7452,187,3252,6731,1009,3855,7553,0,0,0,822,603,822,1309.6,8615.6,-0.097,0.203,1.196,-17.243,-8.203,-2.584,1136.5,1,0.2160,-0.4823,0.2397,-0.8145,232.9,-43.0,0.0
253361,2026-08-29_07-36-28.364-240,v3.5.9,3.52,12.0,400,1417,3859,6645,1067,3960,7503,187,3252,6731,948,3771,7608,0,0,0,761,519,877,1271.9,8367.5,-0.120,0.178,1.101,-36.040,-7.625,-4.235,1104.8,1,0.1939,-0.4836,0.2766,-0.8075,231.8,-42.4,0.0
253388,2026-08-29_07-36-28.389-240,v3.5.9,3.52,12.0,400,1316,3817,6709,947,3900,7548,85,3205,6785,832,3710,7656,0,0,0,747,505,871,1253.7,8247.8,-0.149,0.001,1.083,-33.880,-7.938,-4.183,1089.6,1,0.1726,-0.4832,0.3109,-0.8000,230.6,-41.7,0.0
253435,2026-08-29_07-36-28.437-240,v3.5.9,3.52,12.0,400,1155,3777,6757,947,3900,7548,-69,3164,6814,832,3710,7656,0,0,0,901,546,842,1348.7,8872.8,-0.107,0.061,1.104,47.029,-9.594,-1.388,1169.3,1,0.1963,-0.4635,0.2622,-0.8233,228.9,-41.3,0.0
253461,2026-08-29_07-36-28.464-240,v3.5.9,3.52,12.0,400,1155,3777,6757,854,3846,7573,-69,3164,6814,741,3655,7683,0,0,0,810,491,869,1285.4,8456.8,-0.100,0.235,1.239,57.099,-7.391,-0.039,1116.2,1,0.2241,-0.4419,0.2006,-0.8451,227.5,-41.1,0.0
253491,2026-08-29_07-36-28.494-240,v3.5.9,3.52,12.0,400,1373,3725,6726,854,3846,7573,134,3104,6817,741,3655,7683,0,0,0,607,551,866,1192.5,7845.3,-0.134,0.283,1.124,43.137,-7.594,-2.190,1038.2,1,0.2455,-0.4215,0.1541,-0.8593,226.5,-40.4,0.0
253518,2026-08-29_07-36-28.520-240,v3.5.9,3.52,12.0,400,1373,3725,6726,1182,3791,7541,134,3104,6817,1061,3599,7651,0,0,0,927,495,834,1341.6,8826.4,-0.102,0.285,1.154,32.046,-6.922,-1.651,1163.4,1,0.2599,-0.4042,0.1186,-0.8689,225.5,-39.8,0.0
253554,2026-08-29_07-36-28.556-240,v3.5.9,3.52,12.0,400,1631,3699,6686,1182,3791,7541,376,3071,6816,1061,3599,7651,0,0,0,685,528,835,1202.2,7909.1,-0.040,0.063,1.013,33.052,-4.250,-1.221,1046.4,1,0.2744,-0.3887,0.0807,-0.8758,224.8,-39.5,0.0
253582,2026-08-29_07-36-28.584-240,v3.5.9,3.52,12.0,400,1822,3673,6654,1380,3754,7534,556,3039,6812,1254,3560,7645,0,0,0,698,521,833,1205.2,7929.0,-0.064,-0.000,0.965,41.431,-8.047,3.323,1048.9,1,0.2868,-0.3657,0.0325,-0.8848,223.1,-38.9,0.0
253626,2026-08-29_07-36-28.628-240,v3.5.9,3.52,12.0,400,1822,3673,6654,1637,3699,7522,556,3039,6812,1504,3504,7634,0,0,0,948,465,822,1338.1,8803.5,-0.063,0.194,1.190,60.371,-8.250,7.815,1160.5,1,0.3016,-0.3342,-0.0386,-0.8921,220.7,-38.3,0.0
253673,2026-08-29_07-36-28.675-240,v3.5.9,3.52,12.0,400,2085,3631,6596,2013,3690,7481,805,2991,6794,1870,3494,7591,0,0,0,1065,503,797,1422.1,9356.1,-0.057,0.374,1.180,64.827,-8.016,1.471,1231.0,1,0.3232,-0.2994,-0.1118,-0.8908,219.7,-37.3,0.0
253722,2026-08-29_07-36-28.723-240,v3.5.9,3.52,12.0,400,2450,3584,6484,2013,3690,7481,1156,2938,6736,1870,3494,7591,0,0,0,714,556,855,1245.0,8190.6,-0.462,0.377,0.970,56.423,-7.828,9.228,1082.3,1,0.3309,-0.2651,-0.1780,-0.8880,217.6,-36.1,0.0
253751,2026-08-29_07-36-28.754-240,v3.5.9,3.52,12.0,400,2808,3572,6371,2366,3639,7381,1502,2924,6673,2214,3444,7489,0,0,0,712,520,816,1201.3,7903.5,-0.037,0.635,0.962,24.783,-4.953,6.801,1045.7,1,0.3291,-0.2467,-0.2090,-0.8872,216.0,-35.1,0.0
253786,2026-08-29_07-36-28.787-240,v3.5.9,3.52,12.0,400,2971,3555,6346,2366,3639,7381,1655,2902,6672,2214,3444,7489,0,0,0,559,542,817,1128.6,7425.0,-0.286,0.934,1.068,-41.972,0.203,-0.197,984.6,1,0.3125,-0.2627,-0.1656,-0.8977,215.4,-35.1,0.0
253831,2026-08-29_07-36-28.833-240,v3.5.9,3.52,12.0,400,2971,3555,6346,2525,3581,7417,1655,2902,6672,2369,3383,7528,0,0,0,714,481,856,1214.0,7987.1,-0.072,0.329,1.081,-90.021,-4.266,-9.171,1056.3,1,0.2889,-0.2923,-0.0628,-0.9095,216.4,-34.6,0.0
253862,2026-08-29_07-36-29.863-240,v3.5.9,3.52,12.0,400,2655,3475,6518,2119,3547,7689,1338,2812,6808,1973,3343,7808,0,0,0,635,531,1000,1298.1,8540.4,-0.224,0.188,1.121,-69.088,-5.344,-5.633,1126.9,1,0.2663,-0.3101,0.0161,-0.9125,216.7,-33.9,0.0
253901,2026-08-29_07-36-29.904-240,v3.5.9,3.52,12.0,400,2278,3436,6668,2119,3547,7689,970,2770,6910,1973,3343,7808,0,0,0,1003,573,898,1463.1,9625.8,0.038,0.045,1.049,-32.368,-6.141,-6.157,1265.4,1,0.2573,-0.3135,0.0538,-0.9125,216.9,-33.0,0.0
253934,2026-08-29_07-36-29.936-240,v3.5.9,3.52,12.0,400,2278,3436,6668,1646,3485,7822,970,2770,6910,1513,3279,7947,0,0,0,543,509,1037,1276.4,8397.6,0.001,0.134,1.093,4.360,-8.328,-1.543,1108.7,1,0.2570,-0.3027,0.0485,-0.9165,216.2,-32.0,0.0
253963,2026-08-29_07-36-29.965-240,v3.5.9,3.52,12.0,400,2142,3396,6679,1646,3485,7822,843,2731,6905,1513,3279,7947,0,0,0,670,548,1042,1354.6,8911.9,-0.057,0.329,0.989,7.914,-10.547,-0.762,1174.3,1,0.2570,-0.2882,0.0394,-0.9216,215.3,-30.7,0.0
253994,2026-08-29_07-36-29.996-240,v3.5.9,3.52,12.0,400,2142,3396,6679,1632,3421,7820,843,2731,6905,1500,3214,7947,0,0,0,657,483,1042,1323.1,8704.9,0.014,0.553,1.062,-21.044,-12.234,-4.918,1147.9,1,0.2511,-0.2806,0.0657,-0.9240,215.0,-29.1,0.0
254024,2026-08-29_07-36-29.025-240,v3.5.9,3.52,12.0,400,2191,3342,6716,1528,3356,7919,882,2669,6954,1399,3146,8050,0,0,0,517,477,1096,1302.3,8567.9,-0.006,0.507,0.986,-83.169,-10.609,-8.147,1130.4,1,0.2260,-0.2926,0.1636,-0.9146,215.0,-27.5,0.0
254077,2026-08-29_07-36-29.078-240,v3.5.9,3.52,12.0,400,1901,3266,6859,1528,3356,7919,594,2585,7064,1399,3146,8050,0,0,0,805,561,986,1391.0,9151.5,0.066,-0.150,1.167,-90.972,-10.047,-12.537,1204.9,1,0.2007,-0.3031,0.2698,-0.8917,215.3,-25.6,0.0
254104,2026-08-29_07-36-29.106-240,v3.5.9,3.52,12.0,400,1363,3199,7015,854,3201,8145,77,2518,7151,744,2987,8288,0,0,0,667,469,1137,1399.1,9204.9,0.082,-0.229,1.328,-54.362,-10.141,-9.877,1211.7,1,0.1844,-0.3027,0.3324,-0.8740,215.0,-24.0,0.0
254148,2026-08-29_07-36-29.150-240,v3.5.9,3.51,12.0,400,1363,3199,7015,374,3057,8314,77,2518,7151,277,2839,8466,0,0,0,200,321,1315,1368.3,9002.0,0.056,-0.059,1.310,19.366,-9.875,-4.145,1185.8,1,0.1893,-0.2872,0.3114,-0.8858,214.0,-23.0,0.0
254191,2026-08-29_07-36-29.194-240,v3.5.9,3.51,12.0,400,1169,3106,7048,374,3057,8314,-105,2423,7163,277,2839,8466,0,0,0,382,416,1303,1420.1,9343.0,-0.015,0.327,1.290,38.278,-8.141,-0.919,1229.3,1,0.1978,-0.2700,0.2674,-0.9036,212.9,-22.5,0.0
254218,2026-08-29_07-36-29.219-240,v3.5.9,3.51,12.0,400,1345,3095,7049,488,2851,8234,55,2405,7191,389,2633,8391,0,0,0,334,228,1200,1266.3,8331.0,-0.082,0.536,1.202,7.751,-7.453,-7.200,1100.2,1,0.2030,-0.2586,0.2595,-0.9081,212.7,-21.4,0.0
254252,2026-08-29_07-36-29.255-240,v3.5.9,3.51,12.0,400,1345,3095,7049,488,2851,8234,55,2405,7191,389,2633,8391,0,0,0,334,228,1200,1266.3,8331.0,-0.114,0.476,1.008,-46.920,-3.844,-14.173,1100.2,1,0.1992,-0.2624,0.3143,-0.8903,213.6,-20.0,0.0
254284,2026-08-29_07-36-29.286-240,v3.5.9,3.51,12.0,400,1383,3041,7085,459,2796,7889,84,2343,7237,362,2588,8040,0,0,0,278,245,803,884.4,5818.3,-0.072,0.172,1.213,-89.311,-10.203,-12.378,779.7,1,0.1757,-0.2683,0.4144,-0.8517,213.3,-18.1,0.0
254312,2026-08-29_07-36-29.315-240,v3.5.9,3.51,12.0,400,984,2998,7164,-28,2771,7866,-293,2304,7264,-110,2567,8018,0,0,0,183,263,754,819.3,5389.8,-0.152,-0.100,1.085,-99.266,-2.344,-1.777,725.0,1,0.1393,-0.2866,0.5141,-0.7963,213.0,-18.3,0.0
254363,2026-08-29_07-36-29.365-240,v3.5.9,3.51,12.0,400,497,2972,7216,-28,2771,7866,-747,2289,7248,-110,2567,8018,0,0,0,637,278,770,1037.3,6824.2,0.030,-0.314,0.787,-7.011,-4.797,-4.612,908.0,1,0.1360,-0.2825,0.5204,-0.7943,212.4,-17.9,0.0
254409,2026-08-29_07-36-29.411-240,v3.5.9,3.51,12.0,400,497,2972,7216,-440,2772,7838,-747,2289,7248,-511,2571,7991,0,0,0,236,282,743,829.0,5454.1,-0.195,0.019,1.103,22.053,1.391,0.853,733.2,1,0.1415,-0.2831,0.4945,-0.8095,212.5,-18.6,0.0
254455,2026-08-29_07-36-29.457-240,v3.5.9,3.51,12.0,400,538,2964,7215,-408,2749,7846,-709,2279,7254,-480,2547,8000,0,0,0,229,268,746,825.1,5428.3,0.010,0.119,1.109,12.781,-0.953,-0.487,729.9,1,0.1435,-0.2820,0.4787,-0.8190,212.3,-18.9,0.0
254486,2026-08-29_07-36-29.488-240,v3.5.9,3.51,12.0,400,661,2957,7216,-408,2749,7846,-597,2267,7273,-480,2547,8000,0,0,0,117,280,727,787.8,5182.8,0.009,0.201,1.057,3.535,-3.953,-3.159,698.6,1,0.1431,-0.2777,0.4736,-0.8235,211.8,-18.8,0.0
254513,2026-08-29_07-36-29.514-240,v3.5.9,3.51,12.0,400,661,2957,7216,-259,2748,7875,-597,2267,7273,-335,2544,8029,0,0,0,262,277,756,846.7,5570.4,-0.118,0.302,1.166,-20.019,-3.984,-5.799,748.0,1,0.1372,-0.2760,0.4936,-0.8133,211.5,-18.3,0.0
254541,2026-08-29_07-36-29.544-240,v3.5.9,3.51,12.0,400,699,2949,7228,-259,2748,7875,-564,2256,7292,-335,2544,8029,0,0,0,229,288,737,823.7,5419.4,-0.072,0.189,1.161,-44.822,-1.844,-8.727,728.8,1,0.1268,-0.2784,0.5385,-0.7851,211.6,-17.5,0.0
254571,2026-08-29_07-36-29.574-240,v3.5.9,3.51,12.0,400,525,2937,7233,-318,2730,7872,-724,2249,7272,-392,2527,8026,0,0,0,332,278,754,869.5,5720.4,-0.108,-0.050,1.072,-44.766,-1.859,-9.662,767.2,1,0.1170,-0.2794,0.5821,-0.7546,211.6,-16.6,0.0
254621,2026-08-29_07-36-29.624-240,v3.5.9,3.51,12.0,400,525,2937,7233,-600,2733,7859,-724,2249,7272,-666,2532,8014,0,0,0,58,283,742,796.3,5238.5,-0.012,-0.111,1.259,-28.848,0.609,-7.810,705.7,1,0.1126,-0.2812,0.6086,-0.7334,211.9,-16.0,0.0
254653,2026-08-29_07-36-29.655-240,v3.5.9,3.51,12.0,400,264,2929,7235,-600,2733,7859,-964,2250,7237,-666,2532,8014,0,0,0,298,282,777,878.7,5780.7,-0.015,-0.233,1.141,-11.710,-0.688,-6.157,774.9,1,0.1116,-0.2804,0.6185,-0.7255,211.9,-15.6,0.0
254684,2026-08-29_07-36-29.686-240,v3.5.9,3.51,12.0,400,162,2927,7240,-776,2725,7827,-1058,2251,7228,-837,2526,7982,0,0,0,221,275,754,832.5,5476.7,-0.033,-0.376,1.106,29.819,-0.453,-3.883,736.1,1,0.1232,-0.2755,0.5895,-0.7493,211.9,-15.5,0.0
254723,2026-08-29_07-36-29.724-240,v3.5.9,3.51,12.0,400,162,2927,7240,-648,2725,7819,-1058,2251,7228,-713,2525,7973,0,0,0,345,274,745,865.5,5694.2,0.002,-0.129,1.077,62.177,-2.312,5.599,763.8,1,0.1351,-0.2698,0.5249,-0.7959,211.4,-16.7,0.0
254774,2026-08-29_07-36-29.776-240,v3.5.9,3.51,12.0,400,447,2931,7245,-648,2725,7819,-798,2244,7274,-713,2525,7973,0,0,0,85,281,699,758.1,4987.8,0.004,0.261,1.048,50.113,-3.625,3.705,673.7,1,0.1433,-0.2622,0.4703,-0.8304,210.5,-17.5,0.0
254802,2026-08-29_07-36-29.804-240,v3.5.9,3.51,12.0,400,730,2941,7217,-226,2736,7906,-534,2247,7285,-303,2531,8061,0,0,0,231,284,776,858.0,5644.8,-0.011,0.316,1.152,20.268,-3.203,-1.707,757.5,1,0.1472,-0.2564,0.4470,-0.8443,210.1,-17.5,0.0
254831,2026-08-29_07-36-29.834-240,v3.5.9,3.51,12.0,400,730,2941,7217,-226,2736,7906,-534,2247,7285,-303,2531,8061,0,0,0,231,284,776,858.0,5644.8,0.092,0.257,1.071,-1.331,-1.922,-3.273,757.5,1,0.1465,-0.2550,0.4466,-0.8450,209.9,-17.5,0.0
254860,2026-08-29_07-36-30.862-240,v3.5.9,3.51,12.0,400,931,2934,7206,-2,2721,7924,-348,2234,7304,-85,2514,8079,0,0,0,263,280,775,865.0,5690.7,0.094,0.201,1.061,-11.189,-2.266,-4.943,763.4,1,0.1442,-0.2541,0.4572,-0.8400,209.8,-17.2,0.0
254889,2026-08-29_07-36-30.891-240,v3.5.9,3.51,12.0,400,916,2931,7171,-2,2721,7924,-357,2235,7266,-85,2514,8079,0,0,0,272,279,813,901.6,5931.3,0.070,0.255,1.098,-25.498,-2.047,-5.883,794.1,1,0.1384,-0.2553,0.4829,-0.8261,209.8,-16.8,0.0
254933,2026-08-29_07-36-30.934-240,v3.5.9,3.51,12.0,400,916,2931,7171,-38,2712,7927,-357,2235,7266,-120,2505,8083,0,0,0,237,270,817,892.5,5871.7,-0.094,0.108,1.123,-52.444,1.422,-7.899,786.5,1,0.1278,-0.2630,0.5351,-0.7926,210.3,-16.3,0.0
254961,2026-08-29_07-36-30.964-240,v3.5.9,3.51,12.0,400,718,2928,7232,-302,2727,7921,-547,2233,7300,-377,2522,8077,0,0,0,170,289,777,846.3,5567.5,-0.031,-0.090,1.133,-50.946,1.188,-7.772,747.7,1,0.1170,-0.2692,0.5838,-0.7570,210.7,-15.7,0.0
255003,2026-08-29_07-36-30.004-240,v3.5.9,3.51,12.0,400,425,2925,7242,-302,2727,7921,-817,2239,7268,-377,2522,8077,0,0,0,440,283,809,963.4,6338.3,0.153,-0.276,1.093,-39.710,0.766,-4.498,846.0,1,0.1062,-0.2749,0.6190,-0.7280,210.9,-15.6,0.0
255044,2026-08-29_07-36-30.046-240,v3.5.9,3.51,12.0,400,206,2929,7247,-616,2718,7881,-1019,2250,7241,-682,2516,8037,0,0,0,337,266,796,904.4,5950.0,-0.116,-0.155,0.966,-23.189,-1.297,3.429,796.5,1,0.0921,-0.2823,0.6359,-0.7123,210.8,-16.6,0.0
255088,2026-08-29_07-36-30.089-240,v3.5.9,3.51,12.0,400,206,2929,7247,-802,2733,7843,-1019,2250,7241,-863,2533,7998,0,0,0,156,283,757,823.1,5415.1,-0.001,-0.224,1.187,23.907,0.234,1.876,728.2,1,0.0971,-0.2841,0.6107,-0.7327,210.8,-17.3,0.0
255121,2026-08-29_07-36-30.124-240,v3.5.9,3.51,12.0,400,157,2921,7256,-802,2733,7843,-1065,2243,7244,-863,2533,7998,0,0,0,202,290,754,832.7,5478.4,-0.107,-0.154,1.031,71.610,-1.219,4.375,736.3,1,0.1151,-0.2794,0.5384,-0.7866,210.5,-18.4,0.0
255149,2026-08-29_07-36-30.150-240,v3.5.9,3.51,12.0,400,484,2939,7221,-625,2738,7902,-760,2254,7254,-691,2536,8058,0,0,0,69,282,804,854.8,5623.8,-0.191,0.181,1.089,58.308,0.000,3.430,754.8,1,0.1295,-0.2752,0.4754,-0.8255,210.3,-19.3,0.0
255199,2026-08-29_07-36-30.201-240,v3.5.9,3.51,12.0,400,484,2939,7221,-205,2735,7890,-760,2254,7254,-282,2531,8044,0,0,0,478,277,790,964.0,6342.2,0.051,0.313,1.160,-6.681,-6.625,-7.040,846.5,1,0.1280,-0.2676,0.4825,-0.8241,209.7,-18.5,0.0
255237,2026-08-29_07-36-30.240-240,v3.5.9,3.51,12.0,400,755,2941,7206,-205,2735,7890,-509,2248,7278,-282,2531,8044,0,0,0,227,283,766,847.6,5576.1,0.077,0.088,1.063,-21.880,-3.375,-6.709,748.8,1,0.1230,-0.2659,0.5045,-0.8122,209.5,-17.9,0.0
255271,2026-08-29_07-36-30.274-240,v3.5.9,3.51,12.0,400,696,2930,7227,-257,2731,7818,-567,2236,7292,-333,2529,7971,0,0,0,234,293,679,775.7,5103.0,-0.021,0.031,1.342,-25.730,0.375,-17.566,688.4,1,0.1300,-0.2615,0.5330,-0.7941,210.3,-16.1,0.0
255300,2026-08-29_07-36-30.302-240,v3.5.9,3.51,12.0,400,696,2930,7227,-257,2731,7818,-567,2236,7292,-333,2529,7971,0,0,0,234,293,679,775.7,5103.0,-0.279,-0.203,1.304,-10.131,0.234,-19.392,688.4,1,0.1437,-0.2530,0.5461,-0.7856,211.1,-13.9,0.0
255331,2026-08-29_07-36-30.334-240,v3.5.9,3.51,12.0,400,545,2904,7258,-479,2747,7627,-710,2211,7303,-548,2552,7776,0,0,0,162,341,473,605.2,3981.5,-0.116,-0.337,1.233,28.958,1.500,-20.905,545.3,1,0.1719,-0.2374,0.5205,-0.8020,212.3,-11.6,0.0
255359,2026-08-29_07-36-30.361-240,v3.5.9,3.51,12.0,400,590,2884,7285,-479,2747,7627,-673,2185,7339,-548,2552,7776,0,0,0,125,367,437,584.2,3843.4,-0.169,-0.162,1.139,71.144,0.594,-18.432,527.7,1,0.2085,-0.2122,0.4495,-0.8423,213.4,-9.8,0.0
255409,2026-08-29_07-36-30.411-240,v3.5.9,3.51,12.0,400,590,2884,7285,-487,2779,7397,-673,2185,7339,-555,2592,7540,0,0,0,118,407,201,469.0,3085.6,-0.134,0.352,1.075,62.183,2.594,-25.545,431.1,1,0.2497,-0.1858,0.3857,-0.8685,215.6,-7.5,0.0
255438,2026-08-29_07-36-30.440-240,v3.5.9,3.51,12.0,400,1003,2888,7207,129,2963,7092,-283,2182,7318,42,2783,7221,0,0,0,325,601,-97,690.1,4540.1,-0.233,0.697,1.017,15.585,-12.016,-35.881,616.6,1,0.2832,-0.1522,0.3774,-0.8685,217.4,-2.9,0.0
255474,2026-08-29_07-36-30.476-240,v3.5.9,3.51,12.0,400,1179,2882,7200,129,2963,7092,-121,2170,7337,42,2783,7221,0,0,0,163,613,-116,644.8,4242.2,0.176,0.559,1.093,-57.574,-23.625,-37.846,578.6,1,0.2980,-0.1302,0.4508,-0.8313,217.9,3.0,0.0
255508,2026-08-29_07-36-30.509-240,v3.5.9,3.51,12.0,400,1179,2882,7200,54,2800,7265,-121,2170,7337,-29,2614,7403,0,0,0,92,444,66,458.2,3014.5,-0.041,0.085,1.305,-95.876,-3.922,-36.499,422.0,1,0.3129,-0.1421,0.5508,-0.7606,219.6,7.4,0.0
255536,2026-08-29_07-36-30.538-240,v3.5.9,3.51,12.0,400,789,2835,7247,-335,2772,7230,-485,2130,7333,-407,2589,7369,0,0,0,78,459,36,467.0,3072.2,0.301,-0.275,0.940,-76.137,0.516,-30.123,429.3,1,0.3243,-0.1531,0.6227,-0.6954,220.8,11.0,0.0
255587,2026-08-29_07-36-30.590-240,v3.5.9,3.51,12.0,400,297,2831,7270,-335,2772,7230,-939,2141,7285,-407,2589,7369,0,0,0,532,448,84,700.6,4608.9,0.061,-0.383,1.131,10.137,-1.781,0.120,625.4,1,0.3227,-0.1500,0.6120,-0.7063,220.6,10.5,0.0
255619,2026-08-29_07-36-30.621-240,v3.5.9,3.51,12.0,400,297,2831,7270,-636,2793,7246,-939,2141,7285,-700,2612,7386,0,0,0,239,471,101,537.7,3537.8,-0.078,-0.054,1.231,39.336,3.016,11.570,488.7,1,0.3195,-0.1479,0.5705,-0.7420,220.5,8.3,0.0
255664,2026-08-29_07-36-30.666-240,v3.5.9,3.51,12.0,400,307,2842,7263,-376,2800,7168,-929,2153,7279,-447,2620,7305,0,0,0,482,467,26,671.6,4418.6,0.171,0.237,1.005,21.409,3.062,17.175,601.1,1,0.3071,-0.1566,0.5432,-0.7655,220.0,5.4,0.0
255704,2026-08-29_07-36-30.706-240,v3.5.9,3.51,12.0,400,558,2844,7247,-376,2800,7168,-697,2148,7299,-447,2620,7305,0,0,0,250,472,6,534.2,3514.2,0.007,0.205,1.062,-6.711,-0.750,15.313,485.7,1,0.2881,-0.1710,0.5441,-0.7692,219.1,2.9,0.0
255732,2026-08-29_07-36-30.733-240,v3.5.9,3.51,12.0,400,641,2840,7269,-411,2774,7244,-624,2138,7333,-481,2591,7384,0,0,0,143,453,51,477.8,3143.2,-0.004,0.068,1.166,-14.549,-1.969,18.269,438.4,1,0.2635,-0.1890,0.5518,-0.7683,217.8,0.0,0.0
255776,2026-08-29_07-36-30.777-240,v3.5.9,3.51,12.0,400,641,2840,7269,-470,2877,7225,-624,2138,7333,-539,2696,7361,0,0,0,85,558,28,565.1,3718.0,0.021,-0.052,1.101,-10.466,-3.609,22.154,511.7,1,0.2348,-0.2065,0.5547,-0.7711,216.3,-3.3,0.0
255819,2026-08-29_07-36-30.821-240,v3.5.9,3.51,12.0,400,567,2837,7269,-470,2877,7225,-692,2138,7323,-539,2696,7361,0,0,0,153,558,38,579.8,3814.8,-0.026,-0.118,1.120,4.820,-5.953,23.036,524.1,1,0.2072,-0.2176,0.5427,-0.7843,214.4,-6.7,0.0
255848,2026-08-29_07-36-30.849-240,v3.5.9,3.51,12.0,400,605,2829,7283,-405,2821,7271,-659,2127,7343,-476,2638,7410,0,0,0,183,511,67,546.9,3598.0,-0.018,-0.144,1.110,18.816,-10.078,29.371,496.4,1,0.1741,-0.2250,0.5153,-0.8084,211.5,-10.6,0.0
255881,2026-08-29_07-36-31.883-240,v3.5.9,3.51,12.0,400,605,2829,7283,-405,2821,7271,-659,2127,7343,-476,2638,7410,0,0,0,183,511,67,546.9,3598.0,0.040,0.107,1.143,32.206,-11.297,27.251,496.4,1,0.1455,-0.2262,0.4737,-0.8386,208.2,-14.0,0.0
255909,2026-08-29_07-36-31.911-240,v3.5.9,3.51,12.0,400,758,2805,7242,-231,2708,7510,-513,2100,7325,-306,2515,7657,0,0,0,207,415,332,570.3,3752.3,0.067,0.292,1.084,13.311,-9.438,22.211,516.1,1,0.1177,-0.2291,0.4518,-0.8541,205.2,-16.6,0.0
255938,2026-08-29_07-36-31.940-240,v3.5.9,3.51,12.0,400,955,2767,7228,-231,2708,7510,-331,2054,7342,-306,2515,7657,0,0,0,25,461,315,558.9,3677.0,0.110,0.091,1.123,-1.854,-7.109,14.602,506.5,1,0.0947,-0.2323,0.4474,-0.8584,203.0,-18.3,0.0
255982,2026-08-29_07-36-31.985-240,v3.5.9,3.51,12.0,400,955,2767,7228,117,2706,7458,-331,2054,7342,31,2513,7603,0,0,0,362,459,261,640.2,4211.8,0.078,0.275,1.142,1.278,-3.531,6.714,574.7,1,0.0832,-0.2344,0.4414,-0.8621,201.8,-19.3,0.0
256011,2026-08-29_07-36-31.013-240,v3.5.9,3.51,12.0,400,1007,2719,7247,157,2735,7336,-286,1999,7373,70,2546,7477,0,0,0,356,547,104,660.9,4347.9,0.165,0.262,1.150,-16.350,0.078,-1.476,592.1,1,0.0772,-0.2377,0.4563,-0.8540,201.7,-19.6,0.0
256054,2026-08-29_07-36-31.056-240,v3.5.9,3.51,12.0,400,960,2740,7250,157,2735,7336,-330,2023,7367,70,2546,7477,0,0,0,400,523,110,667.6,4391.8,0.090,0.008,1.136,-18.240,7.047,-14.061,597.7,1,0.0880,-0.2413,0.4760,-0.8411,203.5,-18.8,0.0
256089,2026-08-29_07-36-31.091-240,v3.5.9,3.51,12.0,400,960,2740,7250,83,2767,7348,-330,2023,7367,-1,2578,7489,0,0,0,329,555,122,656.6,4319.9,0.050,0.063,1.139,-16.496,9.328,-21.509,588.5,1,0.1085,-0.2425,0.4955,-0.8270,206.0,-17.1,0.0
256119,2026-08-29_07-36-31.121-240,v3.5.9,3.51,12.0,400,835,2774,7222,-93,2751,7564,-440,2066,7318,-172,2556,7711,0,0,0,268,490,393,682.9,4492.9,0.036,0.013,1.136,-11.506,9.141,-26.554,610.6,1,0.1355,-0.2394,0.5109,-0.8145,208.7,-14.6,0.0
256169,2026-08-29_07-36-31.171-240,v3.5.9,3.51,12.0,400,751,2835,7257,-93,2751,7564,-522,2130,7337,-172,2556,7711,0,0,0,350,426,374,666.2,4383.0,-0.008,-0.028,1.123,10.955,6.422,-29.401,596.6,1,0.1702,-0.2276,0.5040,-0.8156,211.2,-11.5,0.0
256199,2026-08-29_07-36-31.200-240,v3.5.9,3.51,12.0,400,743,2855,7274,-326,2751,7459,-531,2150,7352,-399,2561,7604,0,0,0,132,411,252,499.8,3288.5,-0.056,0.039,1.028,16.675,3.531,-31.025,456.9,1,0.2061,-0.2103,0.4916,-0.8195,213.4,-8.2,0.0
256244,2026-08-29_07-36-31.246-240,v3.5.9,3.51,12.0,400,743,2855,7274,-210,2903,7120,-531,2150,7352,-286,2724,7252,0,0,0,245,574,-100,632.1,4158.3,0.006,-0.034,1.261,20.177,-5.438,-24.459,567.9,1,0.2303,-0.1867,0.4755,-0.8283,214.1,-5.2,0.0
256291,2026-08-29_07-36-31.293-240,v3.5.9,3.51,12.0,400,797,2845,7281,-210,2903,7120,-483,2137,7368,-286,2724,7252,0,0,0,197,587,-116,629.9,4144.4,0.084,0.314,1.073,1.495,-10.797,-17.660,566.1,1,0.2398,-0.1667,0.4781,-0.8283,213.9,-2.7,0.0
256344,2026-08-29_07-36-31.346-240,v3.5.9,3.51,12.0,400,884,2800,7276,-194,2846,7272,-403,2087,7378,-270,2662,7409,0,0,0,133,575,31,591.0,3888.1,0.025,0.122,1.124,-20.161,-10.922,-3.389,533.4,1,0.2297,-0.1615,0.5000,-0.8193,212.6,-2.0,0.0
256373,2026-08-29_07-36-31.374-240,v3.5.9,3.51,12.0,400,803,2756,7261,-216,2702,7350,-475,2044,7355,-291,2514,7494,0,0,0,184,470,139,523.5,3444.2,0.051,0.144,1.111,-27.029,-9.359,6.278,476.8,1,0.2092,-0.1657,0.5259,-0.8076,210.8,-2.7,0.0
256409,2026-08-29_07-36-31.411-240,v3.5.9,3.51,12.0,400,623,2702,7371,-216,2702,7350,-657,1983,7445,-291,2514,7494,0,0,0,366,531,49,646.8,4255.1,0.043,0.151,1.174,-33.954,-3.750,13.721,580.2,1,0.1830,-0.1820,0.5550,-0.7908,209.6,-4.9,0.0
256454,2026-08-29_07-36-31.456-240,v3.5.9,3.51,12.0,400,623,2702,7371,-337,2616,7294,-657,1983,7445,-408,2430,7439,0,0,0,249,447,-6,511.7,3366.5,0.052,0.190,1.132,-57.579,-1.562,17.240,466.9,1,0.1488,-0.2076,0.6040,-0.7550,208.7,-7.7,0.0
256484,2026-08-29_07-36-31.486-240,v3.5.9,3.51,12.0,400,492,2677,7308,-580,2612,7385,-768,1967,7364,-645,2424,7533,0,0,0,123,457,169,502.5,3306.1,0.127,0.120,1.104,-75.615,6.453,15.655,459.2,1,0.1165,-0.2413,0.6643,-0.6978,209.4,-10.5,0.0
256517,2026-08-29_07-36-31.518-240,v3.5.9,3.51,12.0,400,108,2777,7327,-580,2612,7385,-1122,2085,7320,-645,2424,7533,0,0,0,477,339,213,622.8,4097.0,0.137,-0.094,1.115,-75.691,13.188,14.400,560.1,1,0.0898,-0.2776,0.7180,-0.6320,211.7,-12.8,0.0
256561,2026-08-29_07-36-31.562-240,v3.5.9,3.51,12.0,400,108,2777,7327,-973,2681,7387,-1122,2085,7320,-1028,2496,7534,0,0,0,94,411,214,472.8,3110.6,0.086,-0.263,1.100,-48.780,15.922,13.260,434.3,1,0.0750,-0.3103,0.7458,-0.5847,214.7,-14.5,0.0
256586,2026-08-29_07-36-31.588-240,v3.5.9,3.51,12.0,400,-280,2871,7272,-1352,2701,7744,-1468,2204,7201,-1397,2507,7899,0,0,0,71,303,698,764.2,5027.9,0.214,-0.361,0.873,-33.433,-32.797,1.874,678.8,1,0.0289,-0.2941,0.7687,-0.5673,210.4,-16.8,0.0
256638,2026-08-29_07-36-31.639-240,v3.5.9,3.51,12.0,400,-424,2880,7250,-1352,2701,7744,-1596,2221,7157,-1397,2507,7899,0,0,0,199,286,742,819.7,5393.0,-0.530,-0.350,1.719,31.980,-2.609,-2.172,725.4,1,0.0385,-0.2924,0.7436,-0.6000,210.2,-17.1,0.0
256666,2026-08-29_07-36-31.668-240,v3.5.9,3.51,12.0,400,-424,2880,7250,-1302,2788,7714,-1596,2221,7157,-1349,2596,7866,0,0,0,247,375,709,839.2,5521.3,0.425,-0.057,0.702,43.661,-6.812,-10.377,741.8,1,0.0545,-0.2786,0.7111,-0.6432,209.1,-16.3,0.0
256694,2026-08-29_07-36-31.696-240,v3.5.9,3.51,12.0,400,-294,2854,7272,-1302,2788,7714,-1481,2186,7200,-1349,2596,7866,0,0,0,132,410,666,793.1,5218.1,-0.102,-0.078,1.329,36.780,1.344,-11.763,703.1,1,0.0763,-0.2698,0.6820,-0.6754,209.2,-15.1,0.0
256723,2026-08-29_07-36-31.725-240,v3.5.9,3.51,12.0,400,-57,2828,7295,-1120,2713,7515,-1267,2148,7260,-1171,2525,7664,0,0,0,96,377,404,560.9,3689.9,0.267,-0.069,0.825,49.759,-1.719,-17.253,508.1,1,0.1043,-0.2516,0.6418,-0.7169,209.0,-13.1,0.0
256770,2026-08-29_07-36-31.772-240,v3.5.9,3.51,12.0,400,-57,2828,7295,-908,2722,7422,-1267,2148,7260,-965,2536,7568,0,0,0,302,388,308,580.2,3817.0,-0.048,-0.038,1.186,69.710,5.047,-6.634,524.4,1,0.1337,-0.2438,0.5756,-0.7690,209.9,-12.8,0.0
256808,2026-08-29_07-36-31.811-240,v3.5.9,3.51,12.0,400,255,2833,7311,-908,2722,7422,-984,2141,7321,-965,2536,7568,0,0,0,19,395,247,466.3,3067.5,-0.028,-0.041,1.153,67.238,9.531,6.304,428.8,1,0.1521,-0.2480,0.5026,-0.8141,210.9,-14.5,0.0
256839,2026-08-29_07-36-31.841-240,v3.5.9,3.51,12.0,400,671,2838,7314,-560,2768,7410,-604,2131,7384,-626,2581,7554,0,0,0,-22,450,170,481.5,3168.0,0.846,0.051,0.819,59.039,6.031,12.914,441.6,1,0.1582,-0.2526,0.4329,-0.8507,210.7,-17.0,0.0
256878,2026-08-29_07-36-32.880-240,v3.5.9,3.51,12.0,400,671,2838,7314,-97,2698,7464,-604,2131,7384,-176,2506,7610,0,0,0,428,375,226,612.3,4028.1,0.235,0.084,1.037,62.387,-7.781,0.589,551.3,1,0.1698,-0.2337,0.3635,-0.8857,209.5,-16.9,0.0
256925,2026-08-29_07-36-32.926-240,v3.5.9,3.51,12.0,400,1082,2821,7266,-97,2698,7464,-220,2103,7395,-176,2506,7610,0,0,0,44,403,215,458.9,3018.9,0.262,0.409,1.141,37.855,1.141,-2.370,422.6,1,0.1808,-0.2274,0.3185,-0.9023,209.5,-17.2,0.0
256954,2026-08-29_07-36-32.956-240,v3.5.9,3.51,12.0,400,1447,2812,7319,299,2769,7308,105,2075,7503,208,2580,7447,0,0,0,103,505,-56,518.4,3410.7,0.462,0.290,0.973,0.780,2.625,1.444,472.5,1,0.1774,-0.2323,0.3133,-0.9035,209.3,-18.0,0.0
256984,2026-08-29_07-36-32.986-240,v3.5.9,3.51,12.0,400,1447,2812,7319,299,2769,7308,105,2075,7503,208,2580,7447,0,0,0,103,505,-56,518.4,3410.7,0.102,0.270,1.157,-17.203,7.719,-5.891,472.5,1,0.1790,-0.2440,0.3294,-0.8944,210.5,-18.6,0.0
257013,2026-08-29_07-36-32.015-240,v3.5.9,3.51,12.0,400,1555,2807,7248,380,2795,7361,215,2073,7446,287,2604,7500,0,0,0,72,531,54,538.6,3543.2,0.175,0.101,1.062,-16.024,-1.312,-6.066,489.4,1,0.1773,-0.2452,0.3461,-0.8880,210.7,-18.2,0.0
257044,2026-08-29_07-36-32.046-240,v3.5.9,3.51,12.0,400,1471,2822,7247,380,2795,7361,138,2092,7432,287,2604,7500,0,0,0,149,512,68,537.6,3536.6,0.164,0.106,1.092,-11.400,0.891,-4.027,488.6,1,0.1757,-0.2487,0.3565,-0.8833,210.9,-18.3,0.0
257082,2026-08-29_07-36-32.084-240,v3.5.9,3.51,12.0,400,1471,2822,7247,284,2771,7369,138,2092,7432,194,2580,7510,0,0,0,56,488,78,497.4,3272.1,-0.073,0.158,0.920,-8.842,2.438,-3.501,454.9,1,0.1750,-0.2536,0.3635,-0.8792,211.3,-18.6,0.0
257113,2026-08-29_07-36-32.115-240,v3.5.9,3.51,12.0,400,1419,2802,7260,216,2752,7373,89,2071,7439,128,2561,7514,0,0,0,39,490,75,497.2,3271.3,-0.049,0.277,1.131,-19.233,-1.688,-6.126,454.8,1,0.1720,-0.2549,0.3836,-0.8708,211.4,-18.2,0.0
257158,2026-08-29_07-36-32.160-240,v3.5.9,3.51,12.0,400,1311,2819,7294,216,2752,7373,-14,2090,7457,128,2561,7514,0,0,0,142,471,57,495.2,3258.1,-0.102,0.152,1.115,-37.994,-0.484,-9.620,453.1,1,0.1671,-0.2595,0.4244,-0.8513,211.9,-17.5,0.0
257192,2026-08-29_07-36-32.195-240,v3.5.9,3.51,12.0,400,1311,2819,7294,48,2771,7343,-14,2090,7457,-35,2582,7484,0,0,0,-21,492,27,493.2,3244.7,-0.112,-0.133,1.115,-29.799,-0.562,-4.302,451.4,1,0.1589,-0.2648,0.4541,-0.8357,212.0,-17.4,0.0
257221,2026-08-29_07-36-32.223-240,v3.5.9,3.51,12.0,400,1093,2821,7329,48,2771,7343,-219,2097,7461,-35,2582,7484,0,0,0,184,485,23,519.2,3416.1,0.043,-0.108,1.134,3.967,-1.188,-1.442,473.2,1,0.1585,-0.2642,0.4474,-0.8396,211.8,-17.6,0.0
257251,2026-08-29_07-36-32.254-240,v3.5.9,3.51,12.0,400,1045,2822,7336,-147,2733,7330,-264,2099,7461,-224,2546,7472,0,0,0,40,447,11,448.9,2953.4,-0.016,0.103,1.143,15.994,-1.531,-0.953,414.2,1,0.1612,-0.2610,0.4279,-0.8502,211.5,-17.8,0.0
257293,2026-08-29_07-36-32.294-240,v3.5.9,3.51,12.0,400,1045,2822,7336,-67,2774,7318,-264,2099,7461,-147,2587,7458,0,0,0,117,488,-3,501.8,3301.6,0.045,0.100,1.098,18.428,-3.219,-3.801,458.6,1,0.1668,-0.2538,0.4068,-0.8615,211.2,-17.6,0.0
257336,2026-08-29_07-36-32.338-240,v3.5.9,3.51,12.0,400,1152,2805,7317,-67,2774,7318,-164,2079,7459,-147,2587,7458,0,0,0,17,508,-1,508.3,3344.0,0.027,0.295,1.138,3.397,-0.766,-4.523,464.0,1,0.1696,-0.2520,0.4015,-0.8640,211.3,-17.4,0.0
257363,2026-08-29_07-36-32.365-240,v3.5.9,3.51,12.0,400,1247,2818,7301,63,2773,7285,-74,2091,7455,-20,2586,7424,0,0,0,54,495,-31,498.9,3282.2,0.043,0.104,1.107,-6.596,-2.391,-5.736,456.1,1,0.1698,-0.2499,0.4077,-0.8617,211.3,-17.0,0.0
257402,2026-08-29_07-36-32.405-240,v3.5.9,3.51,12.0,400,1247,2818,7301,82,2783,7246,-74,2091,7455,-2,2597,7384,0,0,0,72,506,-71,516.0,3394.8,0.071,0.194,1.128,-1.189,1.156,-2.435,470.5,1,0.1698,-0.2521,0.4062,-0.8617,211.4,-17.2,0.0
257454,2026-08-29_07-36-32.456-240,v3.5.9,3.51,12.0,400,1217,2806,7310,82,2783,7246,-103,2078,7461,-2,2597,7384,0,0,0,101,519,-77,534.3,3515.2,0.017,0.068,1.127,-2.515,-0.734,-4.231,485.9,1,0.1705,-0.2517,0.4072,-0.8613,211.5,-17.1,0.0
257483,2026-08-29_07-36-32.484-240,v3.5.9,3.51,12.0,400,1198,2807,7313,33,2776,7243,-121,2079,7461,-49,2591,7381,0,0,0,72,512,-80,523.2,3442.0,0.039,0.132,1.126,3.340,-0.625,-2.903,476.5,1,0.1716,-0.2508,0.4014,-0.8640,211.4,-17.2,0.0
257526,2026-08-29_07-36-32.528-240,v3.5.9,3.51,12.0,400,1226,2817,7318,103,2824,7237,-96,2089,7469,18,2639,7374,0,0,0,114,550,-95,569.7,3747.8,-0.006,0.124,1.132,-4.551,-1.719,-4.914,515.5,1,0.1718,-0.2494,0.4050,-0.8627,211.4,-16.9,0.0
257567,2026-08-29_07-36-32.569-240,v3.5.9,3.51,12.0,400,1236,2815,7274,103,2824,7237,-80,2090,7426,18,2639,7374,0,0,0,98,549,-52,560.1,3684.9,0.028,0.150,1.116,2.221,-1.672,-4.403,507.5,1,0.1736,-0.2469,0.4011,-0.8649,211.4,-16.7,0.0
257611,2026-08-29_07-36-32.614-240,v3.5.9,3.51,12.0,400,1236,2815,7274,104,2784,7236,-80,2090,7426,19,2599,7374,0,0,0,99,509,-52,521.1,3428.5,0.105,0.144,1.148,-7.611,0.062,-8.308,474.8,1,0.1775,-0.2464,0.4086,-0.8607,211.9,-16.2,0.0
257639,2026-08-29_07-36-32.640-240,v3.5.9,3.51,12.0,400,1222,2804,7308,103,2808,7152,-98,2076,7460,18,2625,7287,0,0,0,116,549,-173,587.2,3863.1,-0.048,0.065,1.131,-2.046,0.469,-6.450,530.2,1,0.1812,-0.2461,0.4095,-0.8596,212.2,-15.9,0.0
257687,2026-08-29_07-36-32.688-240,v3.5.9,3.51,12.0,400,1209,2807,7313,103,2808,7152,-111,2079,7463,18,2625,7287,0,0,0,129,546,-176,588.0,3868.4,0.187,0.177,1.075,-8.986,-1.531,-7.315,530.9,1,0.1828,-0.2447,0.4185,-0.8553,212.5,-15.4,0.0
257714,2026-08-29_07-36-32.716-240,v3.5.9,3.51,12.0,400,1209,2807,7313,132,2815,7130,-111,2079,7463,46,2633,7264,0,0,0,157,554,-199,609.2,4008.1,0.126,0.063,1.086,-7.653,-2.531,-6.786,548.7,1,0.1836,-0.2421,0.4261,-0.8521,212.5,-14.8,0.0
257744,2026-08-29_07-36-32.746-240,v3.5.9,3.51,12.0,400,1178,2793,7313,132,2815,7130,-139,2065,7459,46,2633,7264,0,0,0,185,568,-195,628.4,4134.1,0.125,0.064,1.108,0.059,-3.391,-4.148,564.8,1,0.1835,-0.2383,0.4249,-0.8538,212.2,-14.5,0.0
257772,2026-08-29_07-36-32.774-240,v3.5.9,3.51,12.0,400,1165,2798,7311,125,2817,7129,-151,2071,7455,39,2635,7263,0,0,0,190,564,-192,625.3,4114.1,0.074,0.157,1.108,1.997,-1.297,-2.416,562.3,1,0.1833,-0.2372,0.4206,-0.8563,212.0,-14.6,0.0
257822,2026-08-29_07-36-32.824-240,v3.5.9,3.51,12.0,400,1165,2798,7311,157,2826,7113,-151,2071,7455,70,2644,7247,0,0,0,221,573,-208,648.4,4265.8,-0.012,0.138,1.134,1.550,-1.891,-3.908,581.6,1,0.1842,-0.2348,0.4173,-0.8583,211.9,-14.4,0.0
257861,2026-08-29_07-36-33.864-240,v3.5.9,3.51,12.0,400,1182,2798,7316,157,2826,7113,-136,2070,7463,70,2644,7247,0,0,0,206,574,-216,647.0,4256.4,0.087,0.160,1.090,0.465,-0.672,-3.444,580.4,1,0.1849,-0.2342,0.4148,-0.8596,211.9,-14.4,0.0
257891,2026-08-29_07-36-33.894-240,v3.5.9,3.51,12.0,400,1208,2803,7310,160,2818,7107,-111,2075,7460,73,2637,7241,0,0,0,184,562,-219,630.6,4148.7,0.074,0.283,1.109,-8.831,1.859,-4.139,566.7,1,0.1849,-0.2381,0.4219,-0.8551,212.3,-14.5,0.0
257924,2026-08-29_07-36-33.926-240,v3.5.9,3.51,12.0,400,1208,2803,7310,141,2835,7110,-111,2075,7460,55,2654,7243,0,0,0,166,579,-217,640.2,4212.0,0.007,0.205,1.127,-33.062,2.234,-6.766,574.8,1,0.1806,-0.2464,0.4552,-0.8363,212.9,-14.3,0.0
257972,2026-08-29_07-36-33.974-240,v3.5.9,3.51,12.0,400,1150,2788,7332,141,2835,7110,-168,2059,7475,55,2654,7243,0,0,0,223,595,-232,676.4,4450.3,0.015,-0.122,1.131,9.238,-1.094,-0.968,605.2,1,0.1811,-0.2447,0.4429,-0.8433,212.7,-14.6,0.0
258001,2026-08-29_07-36-33.004-240,v3.5.9,3.51,12.0,400,1018,2792,7356,8,2834,7115,-292,2066,7480,-74,2653,7249,0,0,0,218,587,-231,667.4,4390.9,0.062,0.272,1.127,10.894,0.094,-0.444,597.6,1,0.1823,-0.2442,0.4283,-0.8507,212.5,-15.0,0.0
258036,2026-08-29_07-36-33.037-240,v3.5.9,3.51,12.0,400,1092,2772,7348,8,2834,7115,-224,2043,7484,-74,2653,7249,0,0,0,150,610,-235,670.7,4412.4,-0.020,0.254,1.122,-22.044,0.469,-6.993,600.3,1,0.1805,-0.2480,0.4504,-0.8385,212.9,-14.7,0.0
258084,2026-08-29_07-36-33.086-240,v3.5.9,3.51,12.0,400,1092,2772,7348,44,2839,7081,-224,2043,7484,-38,2659,7214,0,0,0,186,616,-270,697.8,4590.9,0.026,-0.076,1.121,6.507,-1.672,-1.448,623.1,1,0.1804,-0.2461,0.4413,-0.8439,212.7,-14.8,0.0
258113,2026-08-29_07-36-33.114-240,v3.5.9,3.51,12.0,400,1017,2782,7364,17,2819,7119,-295,2055,7489,-65,2638,7253,0,0,0,230,583,-236,669.7,4405.9,0.066,0.272,1.118,11.089,-1.547,0.237,599.5,1,0.1800,-0.2441,0.4266,-0.8521,212.3,-15.2,0.0
258151,2026-08-29_07-36-33.154-240,v3.5.9,3.51,12.0,400,1062,2781,7323,17,2819,7119,-247,2056,7454,-65,2638,7253,0,0,0,182,582,-201,642.1,4224.1,0.017,0.132,1.112,-15.618,0.297,-5.489,576.3,1,0.1785,-0.2471,0.4416,-0.8439,212.5,-15.0,0.0
258198,2026-08-29_07-36-33.200-240,v3.5.9,3.51,12.0,400,1020,2780,7377,25,2816,7114,-294,2051,7503,-57,2635,7248,0,0,0,237,584,-255,679.9,4473.0,0.034,0.038,1.118,3.629,-0.703,-2.402,608.0,1,0.1791,-0.2463,0.4355,-0.8471,212.5,-15.1,0.0
258244,2026-08-29_07-36-33.246-240,v3.5.9,3.51,12.0,400,1020,2780,7377,3,2816,7112,-294,2051,7503,-78,2635,7246,0,0,0,216,584,-257,673.6,4431.7,0.009,0.308,1.130,-7.878,-0.547,-4.364,602.8,1,0.1783,-0.2472,0.4421,-0.8436,212.5,-15.0,0.0
258273,2026-08-29_07-36-33.274-240,v3.5.9,3.51,12.0,400,1058,2776,7367,14,2813,7110,-258,2046,7498,-68,2632,7244,0,0,0,190,586,-254,666.3,4383.8,0.016,0.029,1.130,-13.640,-0.781,-4.375,596.7,1,0.1756,-0.2491,0.4548,-0.8369,212.6,-14.9,0.0
258325,2026-08-29_07-36-33.326-240,v3.5.9,3.51,12.0,400,993,2770,7370,14,2813,7110,-318,2042,7493,-68,2632,7244,0,0,0,250,590,-249,687.5,4522.8,0.035,0.127,1.104,-1.943,-0.391,-3.335,614.4,1,0.1756,-0.2494,0.4547,-0.8368,212.6,-14.9,0.0
258353,2026-08-29_07-36-33.355-240,v3.5.9,3.51,12.0,400,994,2761,7372,-45,2814,7118,-317,2032,7495,-125,2633,7253,0,0,0,192,601,-242,675.7,4445.7,0.035,0.155,1.125,-6.660,-0.328,-3.660,604.6,1,0.1745,-0.2506,0.4597,-0.8339,212.7,-14.9,0.0
258397,2026-08-29_07-36-33.398-240,v3.5.9,3.51,12.0,400,994,2761,7372,-55,2820,7110,-317,2032,7495,-135,2640,7244,0,0,0,182,608,-251,682.5,4490.0,-0.000,0.075,1.130,-6.121,-0.516,-4.008,610.2,1,0.1739,-0.2513,0.4643,-0.8313,212.7,-14.8,0.0
258442,2026-08-29_07-36-33.444-240,v3.5.9,3.51,12.0,400,967,2780,7391,-55,2820,7110,-345,2052,7510,-135,2640,7244,0,0,0,210,588,-266,678.7,4465.0,0.034,0.093,1.120,2.481,-0.578,-2.515,607.0,1,0.1744,-0.2509,0.4595,-0.8340,212.7,-15.0,0.0
258469,2026-08-29_07-36-33.470-240,v3.5.9,3.51,12.0,400,927,2774,7388,-65,2828,7087,-381,2047,7501,-144,2649,7221,0,0,0,237,602,-280,705.0,4637.9,0.032,0.136,1.121,2.047,-0.500,-2.048,629.1,1,0.1742,-0.2509,0.4549,-0.8365,212.6,-15.1,0.0
258503,2026-08-29_07-36-33.505-240,v3.5.9,3.51,12.0,400,927,2774,7388,-65,2828,7087,-381,2047,7501,-144,2649,7221,0,0,0,237,602,-280,705.0,4637.9,0.025,0.122,1.109,-3.231,-0.531,-2.753,629.1,1,0.1732,-0.2517,0.4561,-0.8358,212.5,-15.2,0.0
258534,2026-08-29_07-36-33.535-240,v3.5.9,3.51,12.0,400,981,2759,7390,-49,2802,7111,-332,2029,7512,-129,2622,7246,0,0,0,203,593,-266,680.9,4479.6,0.017,0.076,1.128,-0.395,-0.078,-2.153,608.9,1,0.1726,-0.2526,0.4540,-0.8368,212.5,-15.4,0.0
258560,2026-08-29_07-36-33.562-240,v3.5.9,3.51,12.0,400,980,2789,7384,-49,2802,7111,-332,2061,7504,-129,2622,7246,0,0,0,203,561,-258,650.0,4276.3,0.024,0.147,1.127,-3.017,-0.797,-3.256,583.0,1,0.1720,-0.2528,0.4552,-0.8362,212.5,-15.4,0.0
258607,2026-08-29_07-36-33.609-240,v3.5.9,3.51,12.0,400,980,2789,7384,-43,2816,7100,-332,2061,7504,-123,2636,7234,0,0,0,209,575,-270,668.7,4399.6,0.018,0.091,1.128,-1.827,-0.406,-2.914,598.7,1,0.1716,-0.2533,0.4550,-0.8363,212.5,-15.5,0.0
258636,2026-08-29_07-36-33.638-240,v3.5.9,3.51,12.0,400,981,2774,7392,-35,2814,7114,-332,2045,7513,-115,2633,7249,0,0,0,217,588,-264,680.1,4474.3,0.019,0.141,1.127,-3.380,-0.781,-3.136,608.2,1,0.1708,-0.2536,0.4565,-0.8356,212.4,-15.5,0.0
258674,2026-08-29_07-36-33.675-240,v3.5.9,3.51,12.0,400,996,2774,7388,-35,2814,7114,-318,2045,7511,-115,2633,7249,0,0,0,203,588,-262,675.0,4440.7,0.028,0.090,1.123,-1.795,-0.750,-3.077,603.9,1,0.1704,-0.2536,0.4563,-0.8357,212.4,-15.6,0.0
258714,2026-08-29_07-36-33.716-240,v3.5.9,3.51,12.0,400,996,2774,7388,-62,2803,7112,-318,2045,7511,-141,2623,7247,0,0,0,177,578,-264,659.6,4339.7,0.018,0.088,1.126,-0.196,-0.344,-2.683,591.0,1,0.1703,-0.2539,0.4542,-0.8368,212.4,-15.7,0.0
258743,2026-08-29_07-36-33.745-240,v3.5.9,3.51,12.0,400,982,2769,7386,-38,2810,7095,-330,2040,7507,-118,2630,7229,0,0,0,212,590,-278,685.8,4511.9,0.014,0.126,1.128,-2.229,-0.891,-3.205,613.0,1,0.1698,-0.2539,0.4546,-0.8367,212.3,-15.7,0.0
258791,2026-08-29_07-36-33.794-240,v3.5.9,3.51,12.0,400,987,2769,7379,-38,2810,7095,-325,2040,7501,-118,2630,7229,0,0,0,207,590,-272,681.9,4485.9,0.026,0.103,1.122,-1.680,-0.703,-2.909,609.7,1,0.1693,-0.2540,0.4542,-0.8369,212.3,-15.7,0.0
258840,2026-08-29_07-36-33.841-240,v3.5.9,3.51,12.0,400,991,2770,7387,-44,2813,7112,-322,2041,7510,-124,2633,7247,0,0,0,198,592,-263,677.4,4456.4,0.032,0.102,1.117,-0.923,-0.156,-2.787,605.9,1,0.1693,-0.2546,0.4529,-0.8375,212.3,-15.9,0.0
258874,2026-08-29_07-36-34.876-240,v3.5.9,3.51,12.0,400,991,2770,7387,-42,2808,7111,-322,2041,7510,-122,2628,7246,0,0,0,200,587,-264,674.0,4434.2,0.024,0.129,1.126,1.599,-0.828,-5.199,603.1,1,0.1721,-0.2527,0.4499,-0.8391,212.4,-15.6,0.0
258908,2026-08-29_07-36-34.910-240,v3.5.9,3.51,12.0,400,994,2774,7392,-42,2808,7111,-320,2044,7515,-122,2628,7246,0,0,0,198,584,-269,672.8,4426.1,0.018,0.094,1.128,-1.416,-0.438,-2.358,602.1,1,0.1713,-0.2533,0.4490,-0.8396,212.4,-15.8,0.0
258939,2026-08-29_07-36-34.941-240,v3.5.9,3.51,12.0,400,1004,2766,7379,-29,2809,7115,-309,2037,7504,-109,2628,7250,0,0,0,200,591,-254,673.6,4431.9,0.019,0.141,1.125,-3.051,-0.953,-3.597,602.8,1,0.1709,-0.2531,0.4504,-0.8390,212.3,-15.7,0.0
258973,2026-08-29_07-36-34.975-240,v3.5.9,3.51,12.0,400,1004,2766,7379,-40,2818,7094,-309,2037,7504,-120,2638,7228,0,0,0,189,601,-276,687.8,4525.1,0.030,0.087,1.123,-1.191,-0.438,-3.282,614.7,1,0.1711,-0.2533,0.4496,-0.8393,212.3,-15.7,0.0
259022,2026-08-29_07-36-34.025-240,v3.5.9,3.51,12.0,400,985,2782,7386,-40,2818,7094,-327,2054,7507,-120,2638,7228,0,0,0,207,584,-279,679.5,4470.5,0.019,0.090,1.126,-1.419,-0.203,-3.457,607.7,1,0.1715,-0.2536,0.4490,-0.8394,212.4,-15.8,0.0
259050,2026-08-29_07-36-34.051-240,v3.5.9,3.51,12.0,400,992,2770,7386,-34,2835,7105,-321,2041,7509,-114,2655,7239,0,0,0,207,614,-270,702.0,4618.1,0.025,0.139,1.127,-1.523,-0.656,-2.639,626.6,1,0.1708,-0.2539,0.4484,-0.8398,212.3,-15.9,0.0
259084,2026-08-29_07-36-34.086-240,v3.5.9,3.51,12.0,400,992,2770,7386,-34,2835,7105,-321,2041,7509,-114,2655,7239,0,0,0,207,614,-270,702.0,4618.1,0.028,0.088,1.124,-1.617,-0.578,-3.270,626.6,1,0.1708,-0.2539,0.4481,-0.8400,212.3,-15.9,0.0
259134,2026-08-29_07-36-34.136-240,v3.5.9,3.51,12.0,400,997,2772,7405,-22,2807,7118,-319,2041,7529,-103,2626,7253,0,0,0,216,585,-276,682.0,4486.5,0.025,0.081,1.124,-2.787,-0.453,-3.172,609.8,1,0.1703,-0.2544,0.4489,-0.8395,212.3,-15.9,0.0
259165,2026-08-29_07-36-34.166-240,v3.5.9,3.51,12.0,400,996,2757,7380,-28,2817,7115,-317,2027,7504,-108,2636,7249,0,0,0,209,609,-255,692.5,4556.1,0.031,0.117,1.125,-1.543,-0.500,-3.548,618.6,1,0.1706,-0.2544,0.4486,-0.8396,212.4,-15.9,0.0
259199,2026-08-29_07-36-34.201-240,v3.5.9,3.51,12.0,400,996,2779,7383,-28,2817,7115,-317,2050,7506,-108,2636,7249,0,0,0,209,586,-257,673.1,4428.6,0.025,0.109,1.126,-1.933,-0.875,-2.817,602.4,1,0.1699,-0.2545,0.4485,-0.8398,212.3,-16.0,0.0
259238,2026-08-29_07-36-34.239-240,v3.5.9,3.51,12.0,400,996,2779,7383,-42,2786,7108,-317,2050,7506,-122,2605,7243,0,0,0,195,555,-263,644.4,4239.3,0.022,0.103,1.126,-2.087,-0.938,-3.396,578.2,1,0.1696,-0.2542,0.4488,-0.8398,212.2,-15.9,0.0
259266,2026-08-29_07-36-34.269-240,v3.5.9,3.51,12.0,400,998,2773,7392,-34,2814,7108,-316,2043,7516,-114,2634,7242,0,0,0,202,591,-274,682.0,4487.0,0.013,0.107,1.128,-2.143,-0.922,-2.930,609.8,1,0.1688,-0.2542,0.4490,-0.8398,212.2,-16.0,0.0
259313,2026-08-29_07-36-34.315-240,v3.5.9,3.51,12.0,400,998,2765,7388,-34,2814,7108,-316,2035,7512,-114,2634,7242,0,0,0,202,599,-270,687.4,4522.3,0.027,0.112,1.123,-1.944,-0.328,-2.991,614.3,1,0.1685,-0.2548,0.4488,-0.8398,212.2,-16.1,0.0
259341,2026-08-29_07-36-34.344-240,v3.5.9,3.51,12.0,400,998,2765,7388,-23,2804,7104,-316,2035,7512,-103,2624,7239,0,0,0,213,589,-273,683.2,4495.0,0.029,0.089,1.126,-1.093,-0.047,-3.519,610.9,1,0.1692,-0.2551,0.4479,-0.8400,212.3,-16.1,0.0
259374,2026-08-29_07-36-34.376-240,v3.5.9,3.51,12.0,400,1001,2758,7393,-23,2804,7104,-314,2027,7518,-103,2624,7239,0,0,0,211,597,-279,691.9,4552.2,0.022,0.124,1.126,-2.123,-0.734,-3.177,618.1,1,0.1688,-0.2552,0.4481,-0.8400,212.2,-16.1,0.0
259401,2026-08-29_07-36-34.404-240,v3.5.9,3.51,12.0,400,1006,2767,7376,-64,2822,7111,-307,2038,7501,-143,2642,7245,0,0,0,164,604,-256,676.2,4448.7,0.021,0.102,1.127,-2.293,-1.031,-3.566,604.9,1,0.1686,-0.2547,0.4487,-0.8399,212.2,-16.1,0.0
259449,2026-08-29_07-36-34.451-240,v3.5.9,3.51,12.0,400,1006,2767,7376,-36,2810,7118,-307,2038,7501,-116,2629,7253,0,0,0,191,591,-248,668.8,4399.9,0.022,0.109,1.127,-1.692,-0.438,-2.650,598.7,1,0.1680,-0.2553,0.4482,-0.8401,212.2,-16.2,0.0
259489,2026-08-29_07-36-34.491-240,v3.5.9,3.51,12.0,400,1003,2765,7380,-36,2810,7118,-310,2035,7505,-116,2629,7253,0,0,0,194,594,-252,673.8,4432.7,0.020,0.106,1.126,-2.542,-0.422,-3.747,602.9,1,0.1683,-0.2555,0.4489,-0.8396,212.2,-16.1,0.0
259519,2026-08-29_07-36-34.521-240,v3.5.9,3.51,12.0,400,996,2767,7387,-24,2801,7103,-318,2037,7511,-104,2621,7238,0,0,0,214,584,-273,679.3,4468.8,0.020,0.093,1.126,-2.780,-0.625,-2.689,607.5,1,0.1672,-0.2561,0.4497,-0.8392,212.1,-16.2,0.0
259554,2026-08-29_07-36-34.556-240,v3.5.9,3.51,12.0,400,996,2767,7387,-35,2823,7115,-318,2037,7511,-115,2642,7249,0,0,0,203,605,-262,689.8,4538.4,0.026,0.119,1.127,-2.295,-0.859,-3.474,616.4,1,0.1670,-0.2558,0.4502,-0.8391,212.1,-16.2,0.0
259602,2026-08-29_07-36-34.604-240,v3.5.9,3.51,12.0,400,993,2767,7374,-35,2823,7115,-318,2039,7497,-115,2642,7249,0,0,0,203,603,-248,682.9,4492.6,0.019,0.108,1.126,-2.753,-0.344,-2.831,610.5,1,0.1663,-0.2566,0.4508,-0.8386,212.1,-16.3,0.0
259631,2026-08-29_07-36-34.634-240,v3.5.9,3.51,12.0,400,988,2763,7350,-34,2824,7144,-319,2037,7472,-114,2643,7279,0,0,0,205,606,-193,668.2,4396.1,0.020,0.107,1.127,-2.287,-0.484,-2.992,598.2,1,0.1658,-0.2571,0.4511,-0.8384,212.1,-16.4,0.0
259664,2026-08-29_07-36-34.665-240,v3.5.9,3.51,12.0,400,1001,2764,7375,-34,2824,7144,-311,2035,7499,-114,2643,7279,0,0,0,197,608,-220,675.9,4446.9,0.022,0.101,1.126,-1.682,-0.812,-2.944,604.7,1,0.1652,-0.2571,0.4508,-0.8387,212.0,-16.4,0.0
259714,2026-08-29_07-36-34.716-240,v3.5.9,3.51,12.0,400,1001,2764,7375,-33,2816,7106,-311,2035,7499,-113,2636,7240,0,0,0,198,601,-259,683.7,4498.2,0.018,0.087,1.126,-1.360,-0.828,0.551,611.3,1,0.1611,-0.2590,0.4490,-0.8399,211.7,-16.9,0.0
259743,2026-08-29_07-36-34.745-240,v3.5.9,3.51,12.0,400,997,2770,7379,-28,2812,7094,-315,2041,7502,-108,2632,7228,0,0,0,207,591,-274,683.5,4496.9,0.021,0.125,1.125,-1.288,-0.828,-3.262,611.1,1,0.1611,-0.2588,0.4483,-0.8403,211.7,-16.9,0.0
259783,2026-08-29_07-36-34.785-240,v3.5.9,3.51,12.0,400,1000,2763,7382,-28,2812,7094,-313,2033,7506,-108,2632,7228,0,0,0,205,599,-278,691.5,4549.0,0.023,0.092,1.123,-2.709,-0.734,-2.911,617.7,1,0.1602,-0.2591,0.4491,-0.8400,211.6,-16.9,0.0
259815,2026-08-29_07-36-34.816-240,v3.5.9,3.51,12.0,400,1000,2763,7382,-32,2811,7133,-313,2033,7506,-112,2630,7268,0,0,0,201,597,-238,673.4,4430.2,0.018,0.134,1.126,-2.824,-0.781,-4.017,602.6,1,0.1604,-0.2587,0.4503,-0.8394,211.7,-16.9,0.0
259844,2026-08-29_07-36-34.846-240,v3.5.9,3.51,12.0,400,1003,2764,7382,-32,2811,7133,-310,2034,7507,-112,2630,7268,0,0,0,198,596,-239,672.0,4420.8,0.018,0.097,1.126,-1.688,-0.781,-3.049,601.4,1,0.1600,-0.2587,0.4500,-0.8396,211.6,-16.9,0.0
259872,2026-08-29_07-36-35.874-240,v3.5.9,3.51,12.0,400,986,2774,7381,-44,2815,7110,-326,2046,7503,-124,2635,7244,0,0,0,202,589,-259,674.4,4436.8,0.020,0.102,1.127,-2.083,-0.266,-3.326,603.4,1,0.1601,-0.2592,0.4501,-0.8394,211.7,-16.9,0.0
259921,2026-08-29_07-36-35.924-240,v3.5.9,3.51,12.0,400,986,2774,7381,-33,2823,7101,-326,2046,7503,-113,2643,7235,0,0,0,213,597,-268,688.2,4527.5,0.024,0.102,1.128,-1.642,-0.859,-2.751,615.0,1,0.1593,-0.2593,0.4497,-0.8398,211.6,-17.0,0.0
259954,2026-08-29_07-36-35.955-240,v3.5.9,3.51,12.0,400,998,2766,7390,-33,2823,7101,-316,2036,7514,-113,2643,7235,0,0,0,203,607,-279,698.2,4593.5,0.023,0.094,1.127,-1.504,-0.891,-3.606,623.4,1,0.1595,-0.2588,0.4494,-0.8400,211.6,-16.9,0.0
259984,2026-08-29_07-36-35.986-240,v3.5.9,3.51,12.0,400,1001,2769,7385,-35,2810,7102,-313,2039,7509,-115,2630,7236,0,0,0,198,591,-273,680.5,4476.7,0.024,0.106,1.125,-1.696,-0.438,-3.188,608.5,1,0.1594,-0.2591,0.4491,-0.8401,211.6,-17.0,0.0
260022,2026-08-29_07-36-35.024-240,v3.5.9,3.51,12.0,400,1001,2769,7385,-37,2817,7090,-313,2039,7509,-117,2637,7224,0,0,0,196,598,-285,690.8,4544.9,0.028,0.114,1.128,-2.493,-0.625,-3.162,617.2,1,0.1590,-0.2593,0.4497,-0.8398,211.5,-17.0,0.0
260071,2026-08-29_07-36-35.074-240,v3.5.9,3.51,12.0,400,986,2762,7392,-37,2817,7090,-327,2032,7515,-117,2637,7224,0,0,0,210,605,-291,703.4,4627.8,0.023,0.118,1.127,-2.266,-0.797,-3.238,627.8,1,0.1586,-0.2593,0.4500,-0.8397,211.5,-17.0,0.0
260099,2026-08-29_07-36-35.100-240,v3.5.9,3.51,12.0,400,982,2771,7381,-36,2818,7108,-329,2042,7502,-116,2638,7242,0,0,0,213,596,-260,684.2,4501.6,0.020,0.100,1.126,-1.862,-0.922,-3.381,611.7,1,0.1584,-0.2590,0.4501,-0.8398,211.5,-17.0,0.0
260134,2026-08-29_07-36-35.136-240,v3.5.9,3.51,12.0,400,982,2771,7381,-36,2818,7108,-329,2042,7502,-116,2638,7242,0,0,0,213,596,-260,684.2,4501.6,0.022,0.114,1.125,-1.506,-0.672,-3.046,611.7,1,0.1581,-0.2591,0.4496,-0.8401,211.4,-17.0,0.0
260162,2026-08-29_07-36-35.164-240,v3.5.9,3.51,12.0,400,942,2772,7409,4,2817,7110,-370,2042,7525,-77,2636,7244,0,0,0,293,594,-281,719.5,4733.4,0.024,0.102,1.126,-2.201,-0.875,-3.438,641.3,1,0.1578,-0.2588,0.4500,-0.8400,211.4,-17.0,0.0
260191,2026-08-29_07-36-35.194-240,v3.5.9,3.51,12.0,400,991,2759,7371,4,2817,7110,-320,2030,7494,-77,2636,7244,0,0,0,243,606,-250,699.1,4599.5,0.025,0.120,1.128,-2.383,-0.578,-3.315,624.2,1,0.1576,-0.2590,0.4504,-0.8397,211.4,-17.0,0.0
260235,2026-08-29_07-36-35.236-240,v3.5.9,3.51,12.0,400,991,2759,7371,-32,2781,7109,-320,2030,7494,-112,2600,7244,0,0,0,208,570,-250,656.2,4317.4,0.025,0.102,1.126,-2.193,-0.688,-3.173,588.2,1,0.1572,-0.2591,0.4507,-0.8396,211.4,-17.1,0.0
260264,2026-08-29_07-36-35.266-240,v3.5.9,3.51,12.0,400,998,2776,7384,-40,2817,7098,-315,2047,7507,-120,2637,7232,0,0,0,195,590,-275,679.5,4470.5,0.027,0.129,1.124,-1.795,-0.594,-2.608,607.7,1,0.1564,-0.2596,0.4503,-0.8398,211.3,-17.2,0.0
260302,2026-08-29_07-36-35.304-240,v3.5.9,3.51,12.0,400,996,2769,7353,-40,2817,7098,-312,2043,7476,-120,2637,7232,0,0,0,192,594,-244,670.3,4409.5,0.023,0.105,1.125,-2.133,-0.359,-3.820,600.0,1,0.1569,-0.2597,0.4507,-0.8395,211.4,-17.1,0.0
260341,2026-08-29_07-36-35.344-240,v3.5.9,3.51,12.0,400,996,2769,7353,-34,2810,7106,-312,2043,7476,-114,2630,7240,0,0,0,198,587,-236,662.9,4361.3,0.020,0.103,1.129,-2.328,-0.297,-3.094,593.8,1,0.1566,-0.2603,0.4510,-0.8392,211.4,-17.2,0.0
260369,2026-08-29_07-36-35.371-240,v3.5.9,3.51,12.0,400,995,2769,7384,-55,2816,7103,-318,2040,7507,-135,2636,7237,0,0,0,183,596,-270,679.4,4469.8,0.024,0.103,1.128,1.474,-0.984,-5.073,607.6,1,0.1592,-0.2583,0.4481,-0.8409,211.5,-17.0,0.0
260424,2026-08-29_07-36-35.426-240,v3.5.9,3.51,12.0,400,1002,2760,7375,-55,2816,7103,-310,2031,7500,-135,2636,7237,0,0,0,175,605,-263,682.5,4490.2,0.020,0.102,1.127,-2.780,-1.266,-3.158,610.2,1,0.1583,-0.2579,0.4491,-0.8407,211.4,-16.9,0.0
260452,2026-08-29_07-36-35.454-240,v3.5.9,3.51,12.0,400,999,2775,7389,-37,2817,7115,-315,2045,7513,-117,2636,7249,0,0,0,198,591,-264,676.9,4453.2,0.023,0.103,1.126,-1.957,-0.703,-2.858,605.5,1,0.1577,-0.2582,0.4490,-0.8408,211.3,-17.0,0.0
260496,2026-08-29_07-36-35.498-240,v3.5.9,3.51,12.0,400,999,2775,7389,-33,2814,7103,-315,2045,7513,-113,2634,7237,0,0,0,202,589,-276,681.1,4480.9,0.022,0.102,1.125,-2.001,-0.797,-2.778,609.1,1,0.1569,-0.2583,0.4489,-0.8409,211.2,-17.1,0.0
260539,2026-08-29_07-36-35.541-240,v3.5.9,3.51,12.0,400,991,2748,7420,-33,2814,7103,-327,2014,7545,-113,2634,7237,0,0,0,214,620,-308,724.6,4767.2,0.026,0.102,1.127,-1.656,-0.734,-3.212,645.6,1,0.1567,-0.2583,0.4487,-0.8411,211.2,-17.1,0.0
260569,2026-08-29_07-36-35.571-240,v3.5.9,3.51,12.0,400,993,2768,7386,-61,2814,7091,-320,2038,7509,-140,2634,7225,0,0,0,180,596,-284,684.3,4502.0,0.027,0.102,1.125,-2.455,-0.484,-3.472,611.7,1,0.1566,-0.2585,0.4492,-0.8407,211.2,-17.1,0.0
260604,2026-08-29_07-36-35.606-240,v3.5.9,3.51,12.0,400,993,2768,7386,-47,2813,7104,-320,2038,7509,-127,2633,7238,0,0,0,193,595,-271,681.7,4484.9,0.029,0.103,1.125,-2.039,-0.688,-3.532,609.6,1,0.1566,-0.2584,0.4495,-0.8406,211.2,-17.1,0.0
260653,2026-08-29_07-36-35.655-240,v3.5.9,3.51,12.0,400,963,2771,7374,-47,2813,7104,-346,2044,7492,-127,2633,7238,0,0,0,219,589,-254,677.8,4459.1,0.026,0.129,1.126,-2.655,-0.625,-3.411,606.3,1,0.1564,-0.2585,0.4503,-0.8402,211.2,-17.1,0.0
260695,2026-08-29_07-36-35.699-240,v3.5.9,3.51,12.0,400,919,2766,7417,23,2805,7156,-393,2036,7530,-59,2623,7292,0,0,0,334,587,-238,716.1,4711.0,0.022,0.103,1.125,-1.797,-0.625,-4.393,638.4,1,0.1574,-0.2579,0.4505,-0.8401,211.3,-16.9,0.0
260726,2026-08-29_07-36-35.727-240,v3.5.9,3.51,12.0,400,984,2787,7390,-59,2816,7099,-329,2059,7510,-139,2636,7233,0,0,0,190,577,-277,667.7,4392.4,0.024,0.103,1.124,-2.773,-0.922,-3.054,597.8,1,0.1566,-0.2580,0.4514,-0.8397,211.2,-17.0,0.0
260769,2026-08-29_07-36-35.771-240,v3.5.9,3.51,12.0,400,991,2776,7372,-59,2816,7099,-320,2048,7494,-139,2636,7233,0,0,0,181,588,-261,668.3,4396.7,0.024,0.103,1.126,-1.545,-0.953,-3.113,598.3,1,0.1562,-0.2577,0.4510,-0.8401,211.2,-17.0,0.0
260814,2026-08-29_07-36-35.816-240,v3.5.9,3.51,12.0,400,991,2776,7372,-40,2827,7105,-320,2048,7494,-120,2647,7239,0,0,0,200,599,-255,681.0,4480.6,0.020,0.105,1.127,-1.737,-0.375,-3.165,609.0,1,0.1561,-0.2581,0.4507,-0.8402,211.2,-17.0,0.0
260844,2026-08-29_07-36-35.846-240,v3.5.9,3.51,12.0,400,1002,2768,7378,-47,2810,7101,-311,2039,7502,-127,2630,7235,0,0,0,184,591,-267,674.1,4434.9,0.023,0.102,1.124,-2.629,-0.844,-3.335,603.2,1,0.1557,-0.2580,0.4515,-0.8398,211.1,-17.0,0.0
260889,2026-08-29_07-36-36.891-240,v3.5.9,3.51,12.0,400,985,2769,7392,-47,2810,7101,-328,2039,7514,-127,2630,7235,0,0,0,201,591,-279,683.8,4498.4,0.027,0.102,1.126,-2.330,-0.828,-3.472,611.3,1,0.1555,-0.2579,0.4520,-0.8396,211.1,-17.0,0.0
260919,2026-08-29_07-36-36.921-240,v3.5.9,3.51,12.0,400,985,2769,7392,-63,2807,7100,-328,2039,7514,-142,2627,7235,0,0,0,186,588,-279,676.9,4453.2,0.026,0.091,1.123,-2.541,-0.406,-3.152,605.5,1,0.1551,-0.2584,0.4526,-0.8392,211.1,-17.1,0.0
260947,2026-08-29_07-36-36.950-240,v3.5.9,3.51,12.0,400,1002,2769,7375,-63,2807,7100,-310,2040,7499,-142,2627,7235,0,0,0,168,587,-264,665.2,4376.3,0.025,0.103,1.125,-1.417,-0.859,-3.205,595.7,1,0.1549,-0.2581,0.4521,-0.8396,211.1,-17.1,0.0
260979,2026-08-29_07-36-36.981-240,v3.5.9,3.51,12.0,400,994,2770,7391,-50,2820,7094,-320,2040,7514,-130,2640,7228,0,0,0,190,600,-286,691.3,4548.0,0.025,0.102,1.124,-2.139,-0.719,-3.330,617.6,1,0.1547,-0.2581,0.4524,-0.8395,211.1,-17.1,0.0
261018,2026-08-29_07-36-36.019-240,v3.5.9,3.51,12.0,400,994,2770,7391,-45,2817,7076,-320,2040,7514,-125,2638,7210,0,0,0,195,598,-304,698.6,4596.1,0.025,0.103,1.128,-1.867,-0.500,-3.234,623.7,1,0.1546,-0.2583,0.4523,-0.8395,211.1,-17.1,0.0
261061,2026-08-29_07-36-36.062-240,v3.5.9,3.51,12.0,400,984,2769,7378,-45,2817,7076,-327,2041,7500,-125,2638,7210,0,0,0,202,597,-290,693.8,4564.3,0.024,0.103,1.127,-2.292,-0.875,-2.971,619.7,1,0.1538,-0.2584,0.4526,-0.8395,211.0,-17.1,0.0
261086,2026-08-29_07-36-36.088-240,v3.5.9,3.51,12.0,400,973,2771,7388,-53,2822,7100,-339,2042,7508,-133,2642,7234,0,0,0,206,600,-274,691.0,4546.2,0.024,0.096,1.126,-2.219,-0.500,-3.031,617.4,1,0.1534,-0.2588,0.4528,-0.8393,211.0,-17.2,0.0
261124,2026-08-29_07-36-36.126-240,v3.5.9,3.51,12.0,400,973,2771,7388,-53,2822,7100,-339,2042,7508,-133,2642,7234,0,0,0,206,600,-274,691.0,4546.2,0.023,0.121,1.127,-1.709,-0.719,-3.398,617.4,1,0.1534,-0.2587,0.4526,-0.8395,211.0,-17.2,0.0
261152,2026-08-29_07-36-36.153-240,v3.5.9,3.51,12.0,400,977,2758,7383,-31,2804,7091,-334,2029,7504,-111,2624,7225,0,0,0,223,595,-279,694.0,4565.6,0.024,0.094,1.121,-2.149,-0.953,-3.378,619.9,1,0.1531,-0.2584,0.4530,-0.8394,210.9,-17.2,0.0
261181,2026-08-29_07-36-36.184-240,v3.5.9,3.51,12.0,400,977,2758,7383,-31,2804,7091,-334,2029,7504,-111,2624,7225,0,0,0,223,595,-279,694.0,4565.6,0.027,0.105,1.127,-2.894,-0.281,-3.543,619.9,1,0.1531,-0.2588,0.4540,-0.8387,211.0,-17.2,0.0
261209,2026-08-29_07-36-36.211-240,v3.5.9,3.51,12.0,400,938,2766,7358,-13,2813,7145,-366,2041,7473,-94,2631,7280,0,0,0,272,590,-193,677.7,4458.8,0.026,0.102,1.123,-2.042,-0.594,-2.881,606.2,1,0.1525,-0.2592,0.4540,-0.8387,210.9,-17.2,0.0
261239,2026-08-29_07-36-36.241-240,v3.5.9,3.51,12.0,400,989,2758,7394,-13,2813,7145,-325,2027,7517,-94,2631,7280,0,0,0,231,604,-237,688.7,4531.1,0.023,0.106,1.125,-2.821,-0.375,-3.261,615.5,1,0.1522,-0.2597,0.4549,-0.8381,211.0,-17.3,0.0
261288,2026-08-29_07-36-36.289-240,v3.5.9,3.51,12.0,400,988,2774,7374,-64,2829,7106,-323,2046,7496,-144,2649,7240,0,0,0,179,603,-256,679.1,4467.8,0.019,0.115,1.126,-1.218,-0.922,-2.923,607.4,1,0.1517,-0.2595,0.4541,-0.8387,210.9,-17.3,0.0
261336,2026-08-29_07-36-36.338-240,v3.5.9,3.51,12.0,400,988,2774,7374,-74,2810,7112,-323,2046,7496,-153,2630,7247,0,0,0,170,584,-249,657.2,4323.9,0.023,0.108,1.126,-2.187,-0.219,-3.789,589.0,1,0.1522,-0.2598,0.4545,-0.8383,211.0,-17.3,0.0
261362,2026-08-29_07-36-36.364-240,v3.5.9,3.51,12.0,400,991,2773,7393,-58,2812,7107,-323,2043,7516,-138,2632,7242,0,0,0,185,589,-274,675.4,4443.7,0.023,0.102,1.125,-2.821,-0.297,-3.730,604.3,1,0.1524,-0.2601,0.4555,-0.8376,211.0,-17.3,0.0
261414,2026-08-29_07-36-36.416-240,v3.5.9,3.51,12.0,400,980,2768,7387,-58,2812,7107,-332,2039,7508,-138,2632,7242,0,0,0,194,593,-266,678.3,4462.3,0.025,0.099,1.124,-1.699,-0.500,-3.006,606.7,1,0.1521,-0.2604,0.4551,-0.8378,211.0,-17.3,0.0
261442,2026-08-29_07-36-36.443-240,v3.5.9,3.51,12.0,400,980,2768,7387,-55,2803,7087,-332,2039,7508,-135,2623,7221,0,0,0,197,584,-287,679.9,4472.9,0.027,0.104,1.127,-1.954,-0.234,-3.040,608.0,1,0.1519,-0.2611,0.4550,-0.8377,211.0,-17.4,0.0
261471,2026-08-29_07-36-36.474-240,v3.5.9,3.51,12.0,400,986,2772,7382,-55,2803,7087,-326,2043,7504,-135,2623,7221,0,0,0,191,580,-283,673.0,4427.8,0.022,0.078,1.123,-2.381,-0.547,-3.749,602.3,1,0.1522,-0.2610,0.4556,-0.8373,211.1,-17.4,0.0
261498,2026-08-29_07-36-36.500-240,v3.5.9,3.51,12.0,400,981,2789,7387,-53,2811,7108,-331,2061,7507,-133,2631,7243,0,0,0,198,570,-264,658.6,4333.1,0.021,0.128,1.128,-1.733,-1.031,-3.564,590.2,1,0.1521,-0.2605,0.4556,-0.8375,211.0,-17.3,0.0
261546,2026-08-29_07-36-36.548-240,v3.5.9,3.51,12.0,400,981,2789,7387,-58,2830,7109,-331,2061,7507,-138,2650,7243,0,0,0,193,589,-264,673.7,4432.2,0.020,0.099,1.128,1.664,-0.625,-4.930,602.8,1,0.1549,-0.2589,0.4524,-0.8392,211.1,-17.1,0.0
261582,2026-08-29_07-36-36.585-240,v3.5.9,3.51,12.0,400,980,2772,7400,-58,2830,7109,-334,2042,7521,-138,2650,7243,0,0,0,196,608,-278,696.7,4583.4,0.022,0.108,1.123,-2.856,-0.562,-3.385,622.1,1,0.1546,-0.2592,0.4534,-0.8387,211.1,-17.1,0.0
261614,2026-08-29_07-36-36.616-240,v3.5.9,3.51,12.0,400,977,2778,7393,-57,2817,7101,-336,2049,7513,-137,2637,7235,0,0,0,199,588,-278,680.2,4474.8,0.023,0.097,1.128,-1.899,-0.125,-2.945,608.3,1,0.1543,-0.2600,0.4532,-0.8386,211.2,-17.2,0.0
261648,2026-08-29_07-36-36.650-240,v3.5.9,3.51,12.0,400,977,2778,7393,-57,2817,7101,-336,2049,7513,-137,2637,7235,0,0,0,199,588,-278,680.2,4474.8,0.023,0.102,1.122,-1.705,-0.734,-3.454,608.3,1,0.1544,-0.2598,0.4530,-0.8387,211.2,-17.2,0.0
261676,2026-08-29_07-36-36.678-240,v3.5.9,3.51,12.0,400,966,2770,7398,-55,2798,7094,-347,2040,7517,-135,2618,7229,0,0,0,212,578,-288,679.7,4471.6,0.025,0.102,1.121,-1.399,-0.719,-2.891,607.9,1,0.1539,-0.2599,0.4524,-0.8391,211.1,-17.3,0.0
261702,2026-08-29_07-36-36.704-240,v3.5.9,3.51,12.0,400,966,2770,7398,-55,2798,7094,-347,2040,7517,-135,2618,7229,0,0,0,212,578,-288,679.7,4471.6,0.022,0.102,1.126,-2.259,-0.625,-3.225,607.9,1,0.1536,-0.2600,0.4527,-0.8390,211.1,-17.3,0.0
261731,2026-08-29_07-36-36.734-240,v3.5.9,3.51,12.0,400,933,2772,7361,-32,2824,7129,-371,2047,7475,-112,2643,7264,0,0,0,259,596,-211,683.2,4495.0,0.022,0.102,1.127,-1.751,-0.906,-2.814,610.9,1,0.1529,-0.2600,0.4524,-0.8393,211.0,-17.3,0.0
261761,2026-08-29_07-36-36.764-240,v3.5.9,3.51,12.0,400,979,2766,7414,-32,2824,7129,-337,2034,7536,-112,2643,7264,0,0,0,225,609,-272,703.9,4631.0,0.025,0.098,1.126,-1.947,-0.609,-3.747,628.2,1,0.1532,-0.2599,0.4526,-0.8391,211.0,-17.3,0.0
261811,2026-08-29_07-36-36.814-240,v3.5.9,3.51,12.0,400,979,2766,7414,-52,2820,7101,-337,2034,7536,-132,2640,7235,0,0,0,205,606,-301,707.0,4651.4,0.027,0.102,1.124,-1.416,3.562,-3.296,630.8,1,0.1556,-0.2642,0.4512,-0.8381,211.6,-17.6,0.0
261839,2026-08-29_07-36-36.841-240,v3.5.9,3.51,12.0,400,974,2771,7372,-58,2824,7096,-335,2044,7492,-138,2644,7230,0,0,0,197,600,-262,683.7,4498.1,0.026,0.102,1.127,-1.701,-0.266,-3.384,611.2,1,0.1558,-0.2646,0.4510,-0.8381,211.6,-17.6,0.0
261879,2026-08-29_07-36-37.881-240,v3.5.9,3.51,12.0,400,981,2781,7388,-58,2824,7096,-331,2052,7508,-138,2644,7230,0,0,0,193,592,-278,681.9,4486.2,0.019,0.098,1.124,-2.184,-0.766,-3.376,609.7,1,0.1556,-0.2645,0.4513,-0.8379,211.6,-17.6,0.0
261913,2026-08-29_07-36-37.915-240,v3.5.9,3.51,12.0,400,981,2781,7388,-62,2815,7105,-331,2052,7508,-141,2635,7239,0,0,0,190,583,-269,669.6,4405.2,0.023,0.109,1.125,-2.194,-1.109,-3.081,599.4,1,0.1549,-0.2642,0.4516,-0.8380,211.5,-17.6,0.0
261940,2026-08-29_07-36-37.942-240,v3.5.9,3.51,12.0,400,974,2769,7393,-52,2814,7115,-339,2040,7513,-132,2634,7250,0,0,0,207,594,-263,681.8,4485.5,0.023,0.102,1.123,-2.185,-0.750,-3.285,609.6,1,0.1546,-0.2642,0.4519,-0.8379,211.5,-17.6,0.0
261992,2026-08-29_07-36-37.994-240,v3.5.9,3.51,12.0,400,980,2768,7390,-52,2814,7115,-333,2039,7511,-132,2634,7250,0,0,0,201,595,-261,680.1,4474.4,0.019,0.095,1.126,-2.326,-0.969,-3.060,608.2,1,0.1538,-0.2641,0.4523,-0.8378,211.4,-17.7,0.0
262021,2026-08-29_07-36-37.024-240,v3.5.9,3.51,12.0,400,980,2768,7390,-55,2810,7105,-333,2039,7511,-135,2630,7240,0,0,0,198,591,-271,679.7,4471.4,0.019,0.108,1.128,-1.674,-1.125,-3.274,607.8,1,0.1535,-0.2636,0.4522,-0.8382,211.3,-17.6,0.0
262051,2026-08-29_07-36-37.053-240,v3.5.9,3.51,12.0,400,979,2764,7377,-55,2810,7105,-332,2036,7498,-135,2630,7240,0,0,0,197,594,-258,676.9,4453.4,0.022,0.100,1.124,-1.710,-0.531,-3.180,605.5,1,0.1533,-0.2638,0.4519,-0.8383,211.3,-17.7,0.0
262078,2026-08-29_07-36-37.080-240,v3.5.9,3.51,12.0,400,982,2767,7390,-61,2818,7104,-331,2037,7512,-141,2638,7238,0,0,0,190,601,-274,687.3,4521.7,0.024,0.105,1.124,-2.266,-1.344,-3.238,614.3,1,0.1526,-0.2632,0.4524,-0.8383,211.2,-17.6,0.0
262121,2026-08-29_07-36-37.123-240,v3.5.9,3.51,12.0,400,982,2767,7390,-60,2819,7094,-331,2037,7512,-140,2639,7228,0,0,0,191,602,-284,692.5,4555.8,0.019,0.103,1.122,-2.080,-0.469,-3.039,618.6,1,0.1523,-0.2636,0.4524,-0.8382,211.2,-17.7,0.0
262171,2026-08-29_07-36-37.174-240,v3.5.9,3.51,12.0,400,981,2764,7395,-60,2819,7094,-333,2034,7517,-140,2639,7228,0,0,0,193,605,-289,697.7,4590.2,0.026,0.097,1.125,-1.789,-0.500,-2.973,623.0,1,0.1519,-0.2639,0.4522,-0.8383,211.2,-17.8,0.0
262199,2026-08-29_07-36-37.200-240,v3.5.9,3.51,12.0,400,968,2779,7395,-46,2789,7106,-344,2050,7514,-126,2609,7241,0,0,0,218,559,-273,659.2,4336.8,0.025,0.108,1.128,-1.958,-0.953,-3.579,590.7,1,0.1518,-0.2635,0.4524,-0.8384,211.2,-17.7,0.0
262228,2026-08-29_07-36-37.230-240,v3.5.9,3.51,12.0,400,968,2779,7395,-46,2789,7106,-344,2050,7514,-126,2609,7241,0,0,0,218,559,-273,659.2,4336.8,0.023,0.103,1.126,-1.977,-0.531,-3.080,590.7,1,0.1515,-0.2638,0.4523,-0.8384,211.2,-17.8,0.0
262259,2026-08-29_07-36-37.261-240,v3.5.9,3.51,12.0,400,931,2764,7372,-106,2796,7146,-375,2038,7486,-184,2615,7282,0,0,0,191,577,-204,641.1,4217.8,0.018,0.107,1.129,-4.289,-0.594,-6.491,575.5,1,0.1540,-0.2625,0.4559,-0.8364,211.4,-17.4,0.0
262287,2026-08-29_07-36-37.288-240,v3.5.9,3.51,12.0,400,978,2765,7361,-106,2796,7146,-330,2038,7482,-184,2615,7282,0,0,0,146,577,-200,627.9,4130.9,0.023,0.090,1.124,-2.229,-0.578,-2.610,564.4,1,0.1530,-0.2631,0.4560,-0.8363,211.3,-17.5,0.0
262333,2026-08-29_07-36-37.334-240,v3.5.9,3.51,12.0,400,978,2765,7361,-43,2884,7095,-330,2038,7482,-123,2705,7227,0,0,0,207,667,-255,743.5,4891.3,0.022,0.101,1.127,-1.323,-0.688,-2.917,661.4,1,0.1527,-0.2632,0.4552,-0.8368,211.3,-17.5,0.0
262361,2026-08-29_07-36-37.364-240,v3.5.9,3.51,12.0,400,980,2769,7373,-104,2830,7106,-330,2041,7494,-182,2650,7240,0,0,0,148,609,-254,676.2,4448.9,0.025,0.105,1.126,-0.253,-0.828,-0.125,605.0,1,0.1496,-0.2645,0.4525,-0.8384,211.0,-17.9,0.0
262400,2026-08-29_07-36-37.401-240,v3.5.9,3.51,12.0,400,981,2770,7390,-104,2830,7106,-332,2041,7511,-182,2650,7240,0,0,0,150,609,-271,683.2,4495.0,0.021,0.112,1.124,-2.618,-0.609,-3.378,610.9,1,0.1494,-0.2647,0.4532,-0.8380,211.0,-18.0,0.0
262439,2026-08-29_07-36-37.443-240,v3.5.9,3.51,12.0,400,981,2770,7390,-51,2818,7108,-332,2041,7511,-131,2638,7242,0,0,0,201,597,-269,685.0,4506.3,0.025,0.100,1.123,-1.999,-0.531,-2.869,612.3,1,0.1488,-0.2651,0.4532,-0.8380,211.0,-18.0,0.0
262488,2026-08-29_07-36-37.489-240,v3.5.9,3.51,12.0,400,974,2768,7366,-56,2815,7094,-334,2041,7486,-136,2635,7228,0,0,0,198,594,-258,677.2,4455.3,0.027,0.097,1.125,-1.117,-0.719,-3.216,605.8,1,0.1488,-0.2649,0.4523,-0.8385,211.0,-18.0,0.0
262516,2026-08-29_07-36-37.518-240,v3.5.9,3.51,12.0,400,988,2763,7384,-56,2815,7094,-324,2033,7507,-136,2635,7228,0,0,0,188,602,-279,689.6,4537.0,0.022,0.118,1.125,-1.655,-0.703,-3.429,616.2,1,0.1488,-0.2648,0.4521,-0.8387,211.0,-18.0,0.0
262546,2026-08-29_07-36-37.549-240,v3.5.9,3.51,12.0,400,988,2763,7384,-57,2815,7106,-324,2033,7507,-137,2635,7240,0,0,0,187,602,-267,684.6,4503.9,0.022,0.098,1.126,-2.329,-0.219,-3.003,612.0,1,0.1485,-0.2655,0.4524,-0.8383,211.0,-18.1,0.0
262573,2026-08-29_07-36-37.574-240,v3.5.9,3.51,12.0,400,978,2751,7380,-57,2815,7106,-333,2021,7502,-137,2635,7240,0,0,0,196,614,-262,695.7,4577.2,0.025,0.108,1.124,-2.613,-0.500,-3.182,621.3,1,0.1481,-0.2659,0.4530,-0.8379,211.0,-18.1,0.0
262601,2026-08-29_07-36-37.604-240,v3.5.9,3.51,12.0,400,984,2769,7389,-56,2806,7113,-329,2040,7511,-136,2626,7248,0,0,0,193,586,-263,670.7,4412.4,0.025,0.097,1.126,-2.437,-1.203,-3.284,600.3,1,0.1474,-0.2655,0.4537,-0.8378,210.9,-18.1,0.0
262651,2026-08-29_07-36-37.654-240,v3.5.9,3.51,12.0,400,984,2769,7389,-56,2817,7103,-329,2040,7511,-136,2637,7237,0,0,0,193,597,-274,684.6,4504.2,0.019,0.089,1.124,-0.719,-0.172,-2.995,612.0,1,0.1476,-0.2659,0.4522,-0.8384,210.9,-18.2,0.0
262694,2026-08-29_07-36-37.695-240,v3.5.9,3.51,12.0,400,968,2766,7404,-56,2817,7103,-346,2036,7524,-136,2637,7237,0,0,0,210,601,-287,698.3,4594.3,0.023,0.085,1.124,-2.075,-0.641,-2.844,623.5,1,0.1469,-0.2663,0.4522,-0.8384,210.9,-18.3,0.0
262722,2026-08-29_07-36-37.725-240,v3.5.9,3.51,12.0,400,961,2769,7397,-61,2828,7125,-351,2040,7516,-141,2647,7259,0,0,0,210,607,-257,691.8,4551.4,0.022,0.107,1.124,-1.889,-0.375,-3.240,618.0,1,0.1469,-0.2666,0.4521,-0.8384,210.9,-18.3,0.0
262756,2026-08-29_07-36-37.757-240,v3.5.9,3.51,12.0,400,961,2769,7397,-61,2828,7125,-351,2040,7516,-141,2647,7259,0,0,0,210,607,-257,691.8,4551.4,0.018,0.108,1.127,-1.387,-0.594,-3.403,618.0,1,0.1471,-0.2665,0.4516,-0.8387,210.9,-18.3,0.0
262782,2026-08-29_07-36-37.784-240,v3.5.9,3.51,12.0,400,887,2785,7384,-106,2813,7092,-417,2060,7490,-184,2634,7226,0,0,0,233,574,-264,673.4,4430.2,0.020,0.102,1.123,-1.982,-0.281,-3.402,602.6,1,0.1472,-0.2669,0.4517,-0.8385,210.9,-18.3,0.0
262811,2026-08-29_07-36-37.814-240,v3.5.9,3.51,12.0,400,975,2764,7403,-106,2813,7092,-339,2033,7524,-184,2634,7226,0,0,0,155,601,-298,688.5,4529.6,0.020,0.103,1.126,-1.970,-0.203,-3.319,615.3,1,0.1473,-0.2674,0.4516,-0.8383,211.0,-18.4,0.0
262861,2026-08-29_07-36-38.864-240,v3.5.9,3.51,12.0,400,975,2764,7403,-56,2820,7104,-339,2033,7524,-136,2640,7238,0,0,0,203,607,-286,701.0,4612.1,0.025,0.109,1.127,-2.012,-0.578,-3.078,625.8,1,0.1469,-0.2677,0.4517,-0.8383,211.0,-18.4,0.0
262891,2026-08-29_07-36-38.894-240,v3.5.9,3.51,12.0,400,977,2774,7357,-63,2830,7110,-330,2048,7477,-143,2650,7244,0,0,0,187,602,-233,672.1,4421.4,0.022,0.097,1.124,-1.959,-0.656,-2.893,601.5,1,0.1463,-0.2679,0.4516,-0.8384,210.9,-18.5,0.0
262924,2026-08-29_07-36-38.926-240,v3.5.9,3.51,12.0,400,976,2762,7389,-63,2830,7110,-336,2032,7510,-143,2650,7244,0,0,0,193,618,-266,699.9,4604.9,0.020,0.103,1.127,-1.884,-0.562,-3.170,624.9,1,0.1461,-0.2681,0.4515,-0.8384,210.9,-18.5,0.0
262964,2026-08-29_07-36-38.965-240,v3.5.9,3.51,12.0,400,976,2762,7389,-60,2800,7110,-336,2032,7510,-139,2620,7245,0,0,0,197,588,-265,674.4,4436.7,0.026,0.102,1.127,-2.182,-0.609,-3.341,603.4,1,0.1459,-0.2682,0.4518,-0.8383,210.9,-18.5,0.0
262990,2026-08-29_07-36-38.992-240,v3.5.9,3.51,12.0,400,1010,2776,7394,-51,2813,7103,-306,2046,7519,-131,2633,7237,0,0,0,175,587,-282,674.3,4436.4,0.025,0.095,1.121,-2.145,-0.016,-3.308,603.4,1,0.1461,-0.2689,0.4519,-0.8379,211.0,-18.6,0.0
263042,2026-08-29_07-36-38.044-240,v3.5.9,3.51,12.0,400,973,2765,7394,-51,2813,7103,-340,2035,7515,-131,2633,7237,0,0,0,209,598,-278,691.8,4551.2,0.024,0.102,1.126,-1.930,-1.047,-3.468,618.0,1,0.1459,-0.2685,0.4521,-0.8380,210.9,-18.5,0.0
263086,2026-08-29_07-36-38.088-240,v3.5.9,3.51,12.0,400,971,2785,7394,-42,2820,7111,-341,2057,7513,-122,2640,7245,0,0,0,219,583,-268,678.0,4460.5,0.022,0.103,1.127,-2.016,-0.641,-3.491,606.4,1,0.1459,-0.2684,0.4522,-0.8380,210.9,-18.5,0.0
263117,2026-08-29_07-36-38.119-240,v3.5.9,3.51,12.0,400,971,2785,7394,-55,2806,7099,-341,2057,7513,-135,2626,7234,0,0,0,206,569,-279,666.4,4384.0,0.019,0.093,1.130,-2.354,-0.406,-3.422,596.7,1,0.1459,-0.2687,0.4527,-0.8376,211.0,-18.5,0.0
263161,2026-08-29_07-36-38.164-240,v3.5.9,3.51,12.0,400,978,2766,7388,-55,2806,7099,-334,2037,7509,-135,2626,7234,0,0,0,199,589,-275,679.8,4472.5,0.034,0.095,1.149,-2.090,-0.469,-4.152,608.0,1,0.1467,-0.2685,0.4531,-0.8373,211.0,-18.5,0.0
263188,2026-08-29_07-36-38.189-240,v3.5.9,3.51,12.0,400,973,2766,7386,-58,2791,7128,-338,2037,7506,-138,2610,7264,0,0,0,200,573,-242,653.4,4298.5,0.025,0.102,1.125,-1.725,-0.328,-3.551,585.8,1,0.1470,-0.2687,0.4530,-0.8373,211.1,-18.5,0.0
263226,2026-08-29_07-36-38.228-240,v3.5.9,3.51,12.0,400,973,2766,7386,-54,2822,7112,-338,2037,7506,-134,2642,7246,0,0,0,204,605,-260,689.4,4535.4,0.018,0.106,1.125,-1.912,-0.594,-3.280,616.0,1,0.1469,-0.2687,0.4529,-0.8373,211.1,-18.5,0.0
263274,2026-08-29_07-36-38.276-240,v3.5.9,3.51,12.0,400,975,2773,7399,-54,2822,7112,-339,2043,7519,-134,2642,7246,0,0,0,205,599,-273,689.5,4535.9,0.022,0.097,1.127,-1.698,-0.125,-3.440,616.1,1,0.1473,-0.2692,0.4527,-0.8372,211.1,-18.5,0.0
263304,2026-08-29_07-36-38.306-240,v3.5.9,3.51,12.0,400,922,2778,7393,-72,2807,7101,-386,2051,7505,-151,2627,7236,0,0,0,235,576,-269,677.8,4459.0,0.019,0.102,1.126,-2.165,-0.234,-2.719,606.3,1,0.1467,-0.2700,0.4527,-0.8371,211.1,-18.6,0.0
263333,2026-08-29_07-36-38.334-240,v3.5.9,3.51,12.0,400,922,2778,7393,-72,2807,7101,-386,2051,7505,-151,2627,7236,0,0,0,235,576,-269,677.8,4459.0,0.019,0.103,1.127,-2.027,-0.281,-3.105,606.3,1,0.1465,-0.2706,0.4526,-0.8369,211.2,-18.7,0.0
263361,2026-08-29_07-36-38.364-240,v3.5.9,3.51,12.0,400,966,2770,7401,-64,2800,7108,-347,2040,7520,-143,2620,7243,0,0,0,204,580,-277,674.3,4436.5,0.017,0.105,1.128,-1.844,-1.094,-3.319,603.4,1,0.1461,-0.2701,0.4527,-0.8371,211.1,-18.7,0.0
263389,2026-08-29_07-36-38.390-240,v3.5.9,3.51,12.0,400,973,2770,7376,-64,2800,7108,-337,2042,7496,-143,2620,7243,0,0,0,194,578,-253,660.1,4342.7,0.016,0.064,1.126,-2.093,-0.578,-3.375,591.4,1,0.1460,-0.2702,0.4529,-0.8370,211.1,-18.7,0.0
263439,2026-08-29_07-36-38.441-240,v3.5.9,3.51,12.0,400,973,2770,7376,-37,2820,7104,-337,2042,7496,-117,2640,7238,0,0,0,220,598,-258,687.4,4522.6,0.023,0.081,1.123,-1.702,-0.531,-3.510,614.4,1,0.1462,-0.2702,0.4527,-0.8371,211.1,-18.7,0.0
263468,2026-08-29_07-36-38.470-240,v3.5.9,3.51,12.0,400,977,2768,7378,-59,2807,7097,-334,2040,7499,-139,2627,7231,0,0,0,195,587,-268,674.1,4434.9,0.021,0.113,1.128,-1.773,-0.406,-3.072,603.2,1,0.1460,-0.2706,0.4524,-0.8371,211.1,-18.7,0.0
263506,2026-08-29_07-36-38.508-240,v3.5.9,3.51,12.0,400,982,2768,7385,-59,2807,7097,-330,2039,7506,-139,2627,7231,0,0,0,191,588,-275,676.6,4451.6,0.020,0.095,1.125,-1.828,-0.844,-3.040,605.3,1,0.1455,-0.2706,0.4523,-0.8373,211.1,-18.7,0.0
263538,2026-08-29_07-36-38.540-240,v3.5.9,3.51,12.0,400,982,2768,7385,-59,2812,7107,-330,2039,7506,-139,2632,7242,0,0,0,191,593,-264,676.6,4451.5,0.021,0.103,1.127,-2.398,-0.562,-3.216,605.3,1,0.1452,-0.2708,0.4527,-0.8370,211.0,-18.8,0.0
263571,2026-08-29_07-36-38.574-240,v3.5.9,3.51,12.0,400,984,2762,7391,-59,2812,7107,-329,2032,7513,-139,2632,7242,0,0,0,190,600,-271,685.2,4508.1,0.026,0.111,1.123,-1.863,-0.625,-3.164,612.5,1,0.1449,-0.2709,0.4526,-0.8371,211.0,-18.8,0.0
263599,2026-08-29_07-36-38.601-240,v3.5.9,3.51,12.0,400,980,2768,7399,-41,2800,7104,-334,2038,7521,-121,2620,7239,0,0,0,213,582,-282,680.9,4479.6,0.025,0.094,1.127,-2.098,-0.812,-3.696,608.9,1,0.1450,-0.2706,0.4530,-0.8370,211.0,-18.8,0.0
263644,2026-08-29_07-36-38.646-240,v3.5.9,3.51,12.0,400,980,2768,7399,-58,2811,7100,-334,2038,7521,-138,2631,7234,0,0,0,196,593,-287,687.3,4522.0,0.023,0.100,1.125,-1.932,-0.578,-3.846,614.3,1,0.1455,-0.2704,0.4532,-0.8369,211.1,-18.7,0.0
263692,2026-08-29_07-36-38.694-240,v3.5.9,3.51,12.0,400,984,2764,7395,-50,2814,7104,-330,2034,7517,-130,2634,7238,0,0,0,200,600,-279,691.3,4547.8,0.021,0.103,1.125,-1.692,-1.297,-3.119,617.6,1,0.1449,-0.2698,0.4530,-0.8373,210.9,-18.7,0.0
263739,2026-08-29_07-36-38.740-240,v3.5.9,3.51,12.0,400,982,2781,7384,-50,2814,7104,-330,2053,7504,-130,2634,7238,0,0,0,200,581,-266,669.6,4405.0,0.019,0.103,1.128,-2.209,-0.984,-2.983,599.4,1,0.1441,-0.2697,0.4533,-0.8373,210.9,-18.7,0.0
263767,2026-08-29_07-36-38.769-240,v3.5.9,3.51,12.0,400,972,2771,7387,-52,2813,7084,-339,2042,7507,-132,2633,7218,0,0,0,207,591,-289,689.7,4537.3,0.020,0.102,1.127,-3.089,-1.125,-3.070,616.3,1,0.1430,-0.2696,0.4545,-0.8368,210.8,-18.7,0.0
263806,2026-08-29_07-36-38.807-240,v3.5.9,3.51,12.0,400,972,2771,7387,-39,2825,7102,-339,2042,7507,-119,2645,7236,0,0,0,220,603,-271,696.7,4583.8,0.022,0.103,1.123,-1.819,-0.641,-3.370,622.2,1,0.1430,-0.2696,0.4544,-0.8369,210.8,-18.7,0.0
263859,2026-08-29_07-36-39.861-240,v3.5.9,3.51,12.0,400,978,2767,7379,-39,2825,7102,-333,2039,7500,-119,2645,7236,0,0,0,214,606,-264,694.8,4571.0,0.018,0.103,1.129,-1.440,-0.500,-2.994,620.5,1,0.1428,-0.2699,0.4538,-0.8372,210.7,-18.8,0.0
263909,2026-08-29_07-36-39.911-240,v3.5.9,3.51,12.0,400,974,2770,7390,-67,2816,7114,-338,2041,7510,-146,2636,7249,0,0,0,192,595,-261,677.5,4457.3,0.017,0.103,1.125,-1.748,-1.281,-3.122,606.0,1,0.1421,-0.2693,0.4537,-0.8375,210.6,-18.8,0.0
263939,2026-08-29_07-36-39.941-240,v3.5.9,3.51,12.0,400,973,2763,7388,-42,2813,7105,-339,2034,7509,-122,2633,7239,0,0,0,217,599,-270,691.9,4552.3,0.020,0.102,1.127,-2.243,-0.828,-3.198,618.2,1,0.1417,-0.2692,0.4540,-0.8374,210.6,-18.8,0.0
263974,2026-08-29_07-36-39.977-240,v3.5.9,3.51,12.0,400,982,2770,7389,-42,2813,7105,-331,2041,7510,-122,2633,7239,0,0,0,209,592,-271,683.8,4498.7,0.027,0.102,1.128,-2.003,-0.547,-3.282,611.3,1,0.1415,-0.2694,0.4541,-0.8374,210.6,-18.8,0.0
264014,2026-08-29_07-36-39.016-240,v3.5.9,3.51,12.0,400,982,2770,7389,-60,2810,7078,-331,2041,7510,-139,2631,7212,0,0,0,192,590,-298,688.3,4528.3,0.020,0.103,1.126,-2.013,-0.750,-3.330,615.1,1,0.1413,-0.2693,0.4542,-0.8373,210.6,-18.8,0.0
264041,2026-08-29_07-36-39.044-240,v3.5.9,3.51,12.0,400,977,2767,7387,-55,2821,7101,-335,2038,7508,-135,2641,7235,0,0,0,200,603,-273,691.5,4549.2,0.020,0.103,1.125,-2.009,-0.641,-3.261,617.8,1,0.1411,-0.2694,0.4543,-0.8373,210.6,-18.8,0.0
264088,2026-08-29_07-36-39.090-240,v3.5.9,3.51,12.0,400,985,2774,7387,-55,2821,7101,-328,2045,7509,-135,2641,7235,0,0,0,193,596,-274,683.8,4498.5,0.026,0.103,1.123,-1.943,-0.547,-3.209,611.3,1,0.1409,-0.2696,0.4543,-0.8373,210.5,-18.9,0.0
264116,2026-08-29_07-36-39.119-240,v3.5.9,3.51,12.0,400,985,2774,7387,-52,2821,7106,-328,2045,7509,-132,2641,7240,0,0,0,196,596,-269,682.6,4491.0,0.027,0.103,1.125,-1.439,-0.422,-3.680,610.3,1,0.1415,-0.2696,0.4539,-0.8374,210.6,-18.8,0.0
264151,2026-08-29_07-36-39.153-240,v3.5.9,3.51,12.0,400,977,2762,7385,-52,2821,7106,-335,2033,7506,-132,2641,7240,0,0,0,203,608,-266,694.0,4565.8,0.018,0.098,1.127,-2.213,-0.703,-2.926,619.9,1,0.1408,-0.2698,0.4541,-0.8374,210.5,-18.9,0.0
264177,2026-08-29_07-36-39.180-240,v3.5.9,3.51,12.0,400,978,2771,7387,-51,2813,7105,-334,2042,7508,-131,2633,7239,0,0,0,203,591,-269,680.3,4475.9,0.018,0.090,1.121,-1.904,-0.328,-3.141,608.4,1,0.1407,-0.2703,0.4540,-0.8373,210.6,-19.0,0.0
264223,2026-08-29_07-36-39.225-240,v3.5.9,3.51,12.0,400,978,2771,7387,-55,2816,7105,-334,2042,7508,-135,2636,7239,0,0,0,199,594,-269,681.8,4485.3,0.026,0.102,1.122,-1.990,-0.547,-3.290,609.6,1,0.1405,-0.2704,0.4540,-0.8372,210.6,-19.0,0.0
264269,2026-08-29_07-36-39.271-240,v3.5.9,3.51,12.0,400,982,2773,7401,-55,2816,7105,-332,2043,7522,-135,2636,7239,0,0,0,197,593,-283,686.0,4512.9,0.024,0.109,1.123,-2.001,-0.906,-2.904,613.1,1,0.1398,-0.2704,0.4540,-0.8374,210.5,-19.0,0.0
264297,2026-08-29_07-36-39.299-240,v3.5.9,3.51,12.0,400,970,2767,7391,-44,2823,7089,-342,2038,7511,-124,2643,7223,0,0,0,218,605,-288,704.6,4635.7,0.024,0.103,1.126,-2.434,-0.672,-2.997,628.8,1,0.1391,-0.2707,0.4545,-0.8371,210.5,-19.1,0.0
264339,2026-08-29_07-36-39.341-240,v3.5.9,3.51,12.0,400,981,2775,7386,-44,2834,7114,-331,2046,7507,-124,2654,7248,0,0,0,207,608,-259,692.5,4556.1,0.024,0.113,1.126,-1.493,-0.766,-3.180,618.6,1,0.1389,-0.2706,0.4540,-0.8375,210.4,-19.1,0.0
264382,2026-08-29_07-36-39.384-240,v3.5.9,3.51,12.0,400,981,2775,7386,-44,2834,7114,-331,2046,7507,-124,2654,7248,0,0,0,207,608,-259,692.5,4556.1,0.024,0.111,1.126,-2.172,-0.438,-3.293,618.6,1,0.1388,-0.2709,0.4543,-0.8373,210.4,-19.1,0.0
264411,2026-08-29_07-36-39.414-240,v3.5.9,3.51,12.0,400,943,2776,7383,-36,2814,7083,-365,2049,7498,-116,2634,7217,0,0,0,249,585,-281,695.1,4573.1,0.028,0.102,1.126,-1.991,-0.844,-2.730,620.8,1,0.1379,-0.2710,0.4542,-0.8374,210.3,-19.2,0.0
264439,2026-08-29_07-36-39.441-240,v3.5.9,3.51,12.0,400,979,2758,7390,-36,2814,7083,-334,2028,7512,-116,2634,7217,0,0,0,218,606,-295,708.4,4660.3,0.026,0.101,1.125,-1.505,-0.766,-2.794,631.9,1,0.1373,-0.2712,0.4536,-0.8378,210.3,-19.3,0.0
264483,2026-08-29_07-36-39.485-240,v3.5.9,3.51,12.0,400,979,2758,7390,-45,2815,7109,-334,2028,7512,-125,2635,7243,0,0,0,209,607,-269,696.1,4579.3,0.020,0.096,1.129,-2.041,-1.109,-3.441,621.6,1,0.1370,-0.2706,0.4539,-0.8378,210.2,-19.2,0.0
264512,2026-08-29_07-36-39.514-240,v3.5.9,3.51,12.0,400,987,2765,7360,-23,2817,7090,-322,2038,7482,-104,2637,7224,0,0,0,218,599,-258,687.7,4524.1,0.021,0.113,1.126,-2.139,-0.875,-2.861,614.6,1,0.1362,-0.2707,0.4540,-0.8379,210.1,-19.3,0.0
264556,2026-08-29_07-36-39.558-240,v3.5.9,3.51,12.0,400,981,2773,7389,-23,2817,7090,-332,2044,7510,-104,2637,7224,0,0,0,228,593,-286,696.7,4583.7,0.021,0.112,1.126,-1.557,-0.484,-3.540,622.2,1,0.1365,-0.2707,0.4537,-0.8380,210.2,-19.3,0.0
264588,2026-08-29_07-36-39.590-240,v3.5.9,3.51,12.0,400,981,2773,7389,-48,2822,7102,-332,2044,7510,-128,2642,7236,0,0,0,204,598,-274,688.7,4530.9,0.021,0.097,1.126,-2.833,-0.812,-2.875,615.4,1,0.1355,-0.2710,0.4545,-0.8376,210.1,-19.3,0.0
264619,2026-08-29_07-36-39.621-240,v3.5.9,3.51,12.0,400,976,2752,7389,-48,2822,7102,-336,2022,7511,-128,2642,7236,0,0,0,208,620,-275,709.4,4667.3,0.021,0.101,1.126,-1.883,-0.641,-3.261,632.8,1,0.1353,-0.2710,0.4545,-0.8377,210.1,-19.3,0.0
264648,2026-08-29_07-36-39.649-240,v3.5.9,3.51,12.0,400,981,2770,7384,-50,2811,7109,-331,2041,7505,-130,2631,7244,0,0,0,201,590,-261,675.7,4445.6,0.020,0.102,1.129,-2.130,-0.922,-3.064,604.6,1,0.1347,-0.2709,0.4547,-0.8377,210.0,-19.4,0.0
264698,2026-08-29_07-36-39.700-240,v3.5.9,3.51,12.0,400,981,2770,7384,-50,2817,7094,-331,2041,7505,-130,2637,7228,0,0,0,201,596,-277,687.3,4521.5,0.019,0.118,1.127,-1.994,-0.469,-3.016,614.2,1,0.1343,-0.2713,0.4546,-0.8376,210.0,-19.4,0.0
264727,2026-08-29_07-36-39.729-240,v3.5.9,3.51,12.0,400,981,2754,7416,-50,2817,7094,-336,2021,7539,-130,2637,7228,0,0,0,206,616,-311,720.1,4737.8,0.022,0.087,1.124,-2.194,-0.906,-3.424,641.8,1,0.1341,-0.2711,0.4550,-0.8376,210.0,-19.4,0.0
264756,2026-08-29_07-36-39.759-240,v3.5.9,3.51,12.0,400,980,2765,7386,-47,2826,7106,-332,2036,7507,-127,2646,7240,0,0,0,205,610,-267,696.7,4583.7,0.023,0.103,1.126,-1.916,-0.703,-2.881,622.2,1,0.1335,-0.2713,0.4549,-0.8377,209.9,-19.5,0.0
264799,2026-08-29_07-36-39.800-240,v3.5.9,3.51,12.0,400,980,2765,7386,-51,2818,7081,-332,2036,7507,-131,2639,7215,0,0,0,201,603,-292,699.5,4601.9,0.022,0.102,1.125,-1.769,-0.344,-3.471,624.5,1,0.1337,-0.2715,0.4547,-0.8376,210.0,-19.5,0.0
264849,2026-08-29_07-36-39.851-240,v3.5.9,3.51,12.0,400,946,2771,7393,-51,2818,7081,-364,2043,7509,-131,2639,7215,0,0,0,233,596,-294,704.2,4633.1,0.020,0.101,1.114,-2.023,-0.578,-3.505,628.5,1,0.1338,-0.2715,0.4549,-0.8375,210.0,-19.5,0.0
264877,2026-08-29_07-36-40.878-240,v3.5.9,3.51,12.0,400,968,2774,7385,-44,2812,7105,-343,2046,7504,-124,2632,7239,0,0,0,219,586,-265,679.4,4469.7,0.021,0.121,1.120,-2.351,-0.672,-3.478,607.6,1,0.1337,-0.2715,0.4554,-0.8373,210.0,-19.4,0.0
264906,2026-08-29_07-36-40.908-240,v3.5.9,3.51,12.0,400,968,2774,7385,-44,2812,7105,-343,2046,7504,-124,2632,7239,0,0,0,219,586,-265,679.4,4469.7,0.025,0.097,1.123,-2.016,-0.094,-3.148,607.6,1,0.1336,-0.2722,0.4554,-0.8371,210.0,-19.5,0.0
264953,2026-08-29_07-36-40.955-240,v3.5.9,3.51,12.0,400,948,2792,7423,-39,2814,7096,-367,2062,7539,-119,2634,7230,0,0,0,248,572,-309,695.8,4577.8,0.023,0.096,1.128,-1.783,-0.828,-3.463,621.4,1,0.1336,-0.2719,0.4553,-0.8372,210.0,-19.5,0.0
264984,2026-08-29_07-36-40.986-240,v3.5.9,3.51,12.0,400,981,2772,7397,-43,2821,7101,-333,2042,7518,-123,2641,7235,0,0,0,210,599,-283,695.0,4572.2,0.022,0.111,1.125,-2.276,-0.484,-3.630,620.7,1,0.1338,-0.2720,0.4558,-0.8369,210.0,-19.5,0.0
265024,2026-08-29_07-36-40.026-240,v3.5.9,3.51,12.0,400,986,2774,7387,-43,2821,7101,-327,2045,7509,-123,2641,7235,0,0,0,204,596,-274,687.0,4519.4,0.021,0.119,1.126,-2.456,-0.172,-3.255,614.0,1,0.1337,-0.2726,0.4563,-0.8364,210.1,-19.5,0.0
265064,2026-08-29_07-36-40.066-240,v3.5.9,3.51,12.0,400,986,2774,7387,-45,2811,7112,-327,2045,7509,-125,2631,7247,0,0,0,202,586,-262,672.9,4427.2,0.025,0.108,1.125,-1.457,-0.531,-3.056,602.2,1,0.1335,-0.2729,0.4557,-0.8367,210.1,-19.6,0.0
265093,2026-08-29_07-36-40.095-240,v3.5.9,3.51,12.0,400,984,2773,7388,-54,2816,7100,-329,2044,7509,-134,2636,7234,0,0,0,195,592,-275,681.3,4482.0,0.023,0.097,1.126,-2.110,-0.625,-3.436,609.2,1,0.1334,-0.2729,0.4560,-0.8366,210.1,-19.6,0.0
265138,2026-08-29_07-36-40.140-240,v3.5.9,3.51,12.0,400,983,2776,7388,-54,2816,7100,-330,2047,7509,-134,2636,7234,0,0,0,196,589,-275,678.9,4466.7,0.023,0.094,1.126,-2.140,-0.641,-3.113,607.2,1,0.1330,-0.2730,0.4561,-0.8365,210.0,-19.6,0.0
265165,2026-08-29_07-36-40.167-240,v3.5.9,3.51,12.0,400,983,2776,7388,-58,2817,7098,-330,2047,7509,-138,2637,7232,0,0,0,192,590,-277,679.5,4470.3,0.027,0.104,1.126,-2.357,-0.812,-3.114,607.7,1,0.1324,-0.2731,0.4566,-0.8363,210.0,-19.6,0.0
265199,2026-08-29_07-36-40.201-240,v3.5.9,3.51,12.0,400,990,2764,7390,-58,2817,7098,-323,2034,7513,-138,2637,7232,0,0,0,185,603,-281,690.5,4542.8,0.022,0.109,1.123,-1.969,-0.812,-2.941,616.9,1,0.1318,-0.2731,0.4565,-0.8364,209.9,-19.7,0.0
265227,2026-08-29_07-36-40.229-240,v3.5.9,3.51,12.0,400,994,2767,7385,-46,2816,7114,-319,2037,7508,-126,2636,7249,0,0,0,193,599,-259,680.5,4477.2,0.028,0.103,1.125,-1.773,-0.688,-2.946,608.6,1,0.1313,-0.2733,0.4563,-0.8366,209.9,-19.7,0.0
265271,2026-08-29_07-36-40.274-240,v3.5.9,3.51,12.0,400,994,2767,7385,-46,2810,7101,-319,2037,7508,-126,2630,7235,0,0,0,193,593,-273,680.8,4478.6,0.020,0.103,1.125,-1.871,-1.016,-3.304,608.8,1,0.1309,-0.2729,0.4563,-0.8368,209.8,-19.7,0.0
265316,2026-08-29_07-36-40.319-240,v3.5.9,3.51,12.0,400,987,2752,7385,-46,2810,7101,-326,2022,7508,-126,2630,7235,0,0,0,200,608,-273,695.8,4577.9,0.024,0.102,1.125,-2.073,-0.875,-3.404,621.4,1,0.1307,-0.2727,0.4565,-0.8367,209.8,-19.7,0.0
265346,2026-08-29_07-36-40.348-240,v3.5.9,3.51,12.0,400,980,2772,7399,-67,2845,7092,-334,2042,7520,-146,2666,7225,0,0,0,188,624,-295,715.4,4706.3,0.023,0.102,1.126,-2.017,-0.328,-3.274,637.8,1,0.1307,-0.2731,0.4566,-0.8366,209.8,-19.7,0.0
265379,2026-08-29_07-36-40.381-240,v3.5.9,3.51,12.0,400,980,2772,7399,-49,2798,7096,-334,2042,7520,-129,2618,7231,0,0,0,205,576,-289,676.3,4449.1,0.023,0.108,1.123,-2.417,-0.703,-3.187,605.0,1,0.1302,-0.2732,0.4571,-0.8364,209.8,-19.8,0.0
265427,2026-08-29_07-36-40.429-240,v3.5.9,3.51,12.0,400,967,2766,7390,-49,2798,7096,-345,2037,7510,-129,2618,7231,0,0,0,216,581,-279,679.7,4472.0,0.022,0.097,1.129,-2.749,-0.703,-3.230,607.9,1,0.1297,-0.2734,0.4579,-0.8359,209.8,-19.8,0.0
265456,2026-08-29_07-36-40.459-240,v3.5.9,3.51,12.0,400,941,2766,7341,17,2831,7235,-361,2042,7456,-65,2647,7372,0,0,0,296,605,-84,678.7,4465.4,0.020,0.102,1.126,-1.501,-0.828,-3.662,607.1,1,0.1299,-0.2729,0.4576,-0.8362,209.8,-19.7,0.0
265488,2026-08-29_07-36-40.489-240,v3.5.9,3.51,12.0,400,984,2764,7388,17,2831,7235,-329,2034,7510,-65,2647,7372,0,0,0,264,613,-138,681.5,4483.9,0.022,0.102,1.125,-2.609,-0.125,-3.456,609.4,1,0.1300,-0.2735,0.4583,-0.8356,209.8,-19.8,0.0
265536,2026-08-29_07-36-40.538-240,v3.5.9,3.51,12.0,400,984,2764,7388,-51,2838,7115,-329,2034,7510,-131,2658,7249,0,0,0,198,624,-261,704.8,4636.6,0.023,0.106,1.124,-1.900,-0.391,-3.540,628.9,1,0.1303,-0.2737,0.4584,-0.8355,209.9,-19.7,0.0
265582,2026-08-29_07-36-40.584-240,v3.5.9,3.51,12.0,400,982,2772,7370,-59,2803,7101,-328,2045,7491,-138,2623,7236,0,0,0,190,578,-255,659.7,4340.2,0.024,0.103,1.127,-1.769,-0.719,-3.471,591.1,1,0.1303,-0.2735,0.4583,-0.8356,209.8,-19.7,0.0
265611,2026-08-29_07-36-40.614-240,v3.5.9,3.51,12.0,400,988,2779,7393,-58,2817,7106,-326,2050,7515,-138,2637,7240,0,0,0,188,587,-275,674.9,4440.4,0.027,0.103,1.123,-1.517,-0.812,-3.346,603.9,1,0.1303,-0.2733,0.4579,-0.8359,209.8,-19.7,0.0
265661,2026-08-29_07-36-40.664-240,v3.5.9,3.51,12.0,400,987,2779,7395,-58,2817,7106,-327,2049,7517,-138,2637,7240,0,0,0,189,588,-277,676.9,4453.3,0.019,0.101,1.124,-2.241,-0.812,-3.289,605.5,1,0.1299,-0.2732,0.4583,-0.8357,209.8,-19.7,0.0
265696,2026-08-29_07-36-40.698-240,v3.5.9,3.51,12.0,400,987,2779,7395,-44,2818,7104,-327,2049,7517,-124,2638,7238,0,0,0,203,589,-279,682.6,4490.9,0.023,0.102,1.126,-2.601,-0.578,-3.568,610.3,1,0.1298,-0.2733,0.4591,-0.8353,209.8,-19.7,0.0
265724,2026-08-29_07-36-40.725-240,v3.5.9,3.51,12.0,400,980,2766,7376,-44,2818,7104,-330,2038,7497,-124,2638,7238,0,0,0,206,600,-259,685.2,4508.0,0.025,0.103,1.126,-1.668,-0.797,-2.826,612.5,1,0.1292,-0.2734,0.4587,-0.8356,209.7,-19.8,0.0
265754,2026-08-29_07-36-40.756-240,v3.5.9,3.51,12.0,400,996,2776,7396,-78,2824,7113,-319,2046,7519,-157,2644,7247,0,0,0,162,598,-272,676.6,4451.5,0.024,0.114,1.126,-2.914,-0.406,-3.640,605.3,1,0.1292,-0.2736,0.4598,-0.8349,209.8,-19.8,0.0
265797,2026-08-29_07-36-40.800-240,v3.5.9,3.51,12.0,400,996,2776,7396,-51,2824,7103,-319,2046,7519,-131,2644,7237,0,0,0,188,598,-282,687.4,4522.1,0.024,0.104,1.128,-1.076,-0.422,-3.114,614.3,1,0.1293,-0.2738,0.4588,-0.8353,209.8,-19.8,0.0
265838,2026-08-29_07-36-40.840-240,v3.5.9,3.51,12.0,400,990,2775,7400,-51,2824,7103,-325,2045,7522,-131,2644,7237,0,0,0,194,599,-285,691.1,4546.9,0.022,0.094,1.126,-1.846,-0.844,-3.354,617.5,1,0.1291,-0.2736,0.4588,-0.8354,209.7,-19.8,0.0
265865,2026-08-29_07-36-41.866-240,v3.5.9,3.51,12.0,400,980,2770,7384,-46,2815,7089,-332,2041,7505,-126,2635,7223,0,0,0,206,594,-282,689.1,4533.3,0.025,0.106,1.122,-1.091,-0.250,-3.015,615.7,1,0.1291,-0.2741,0.4578,-0.8358,209.8,-19.9,0.0
265904,2026-08-29_07-36-41.906-240,v3.5.9,3.51,12.0,400,980,2770,7384,-41,2809,7104,-332,2041,7505,-121,2629,7238,0,0,0,211,588,-267,679.4,4469.6,0.024,0.064,1.125,-2.017,-0.578,-3.274,607.6,1,0.1290,-0.2742,0.4579,-0.8358,209.8,-19.9,0.0
265956,2026-08-29_07-36-41.958-240,v3.5.9,3.51,12.0,400,987,2771,7388,-41,2809,7104,-326,2042,7510,-121,2629,7238,0,0,0,205,587,-272,678.7,4464.9,0.026,0.092,1.123,-2.212,-0.391,-3.612,607.0,1,0.1292,-0.2744,0.4583,-0.8355,209.8,-19.9,0.0
265983,2026-08-29_07-36-41.984-240,v3.5.9,3.51,12.0,400,957,2775,7365,-57,2812,7091,-350,2049,7482,-137,2632,7225,0,0,0,213,583,-257,671.8,4419.7,0.027,0.106,1.125,-2.449,-0.531,-2.898,601.2,1,0.1285,-0.2749,0.4587,-0.8352,209.8,-20.0,0.0
266011,2026-08-29_07-36-41.014-240,v3.5.9,3.51,12.0,400,957,2775,7365,-57,2812,7091,-350,2049,7482,-137,2632,7225,0,0,0,213,583,-257,671.8,4419.7,0.021,0.097,1.126,-1.860,-0.562,-3.003,601.2,1,0.1281,-0.2751,0.4585,-0.8353,209.8,-20.0,0.0
266041,2026-08-29_07-36-41.044-240,v3.5.9,3.51,12.0,400,994,2777,7363,-53,2866,7096,-316,2050,7485,-133,2687,7229,0,0,0,183,637,-256,710.5,4674.3,0.027,0.102,1.125,-2.098,-0.078,-3.353,633.7,1,0.1283,-0.2758,0.4586,-0.8350,209.8,-20.1,0.0
266069,2026-08-29_07-36-41.070-240,v3.5.9,3.51,12.0,400,992,2774,7365,-53,2866,7096,-318,2047,7487,-133,2687,7229,0,0,0,185,640,-258,714.4,4700.1,0.024,0.114,1.127,-1.709,-0.625,-2.929,637.0,1,0.1278,-0.2760,0.4583,-0.8352,209.8,-20.1,0.0
266114,2026-08-29_07-36-41.116-240,v3.5.9,3.51,12.0,400,992,2774,7365,-59,2814,7103,-318,2047,7487,-139,2634,7237,0,0,0,179,587,-250,662.7,4359.6,0.019,0.103,1.126,-4.436,-0.531,-6.496,593.6,1,0.1302,-0.2747,0.4620,-0.8332,210.0,-19.7,0.0
266143,2026-08-29_07-36-41.145-240,v3.5.9,3.51,12.0,400,992,2765,7386,-49,2819,7121,-321,2035,7509,-129,2638,7256,0,0,0,192,603,-253,681.5,4483.7,0.025,0.103,1.123,-2.496,-1.078,-3.791,609.4,1,0.1301,-0.2741,0.4628,-0.8329,210.0,-19.6,0.0
266189,2026-08-29_07-36-41.191-240,v3.5.9,3.51,12.0,400,987,2774,7389,-49,2819,7121,-326,2045,7511,-129,2638,7256,0,0,0,197,593,-255,674.9,4440.1,0.021,0.117,1.126,-1.506,-0.750,-3.515,603.8,1,0.1303,-0.2738,0.4625,-0.8332,210.0,-19.6,0.0
266218,2026-08-29_07-36-41.220-240,v3.5.9,3.51,12.0,400,987,2774,7389,-52,2808,7097,-326,2045,7511,-132,2628,7231,0,0,0,194,583,-280,675.2,4442.3,0.024,0.095,1.125,-1.883,-0.750,-2.792,604.1,1,0.1295,-0.2741,0.4623,-0.8333,209.9,-19.7,0.0
266249,2026-08-29_07-36-41.251-240,v3.5.9,3.51,12.0,400,994,2768,7394,-52,2808,7097,-320,2038,7517,-132,2628,7231,0,0,0,188,590,-286,682.1,4487.4,0.021,0.109,1.126,-2.516,-0.531,-3.202,609.9,1,0.1292,-0.2744,0.4629,-0.8329,209.9,-19.7,0.0
266277,2026-08-29_07-36-41.279-240,v3.5.9,3.51,12.0,400,978,2773,7389,-14,2816,7105,-334,2044,7510,-95,2636,7239,0,0,0,239,592,-271,693.6,4562.9,0.020,0.107,1.125,-2.299,-0.891,-2.606,619.5,1,0.1280,-0.2746,0.4631,-0.8329,209.8,-19.8,0.0
266324,2026-08-29_07-36-41.326-240,v3.5.9,3.51,12.0,400,978,2773,7389,-40,2821,7099,-334,2044,7510,-120,2641,7233,0,0,0,214,597,-277,692.1,4553.0,0.028,0.089,1.123,-2.124,-0.969,-3.086,618.2,1,0.1274,-0.2744,0.4633,-0.8330,209.7,-19.8,0.0
266362,2026-08-29_07-36-41.363-240,v3.5.9,3.51,12.0,400,988,2771,7396,-40,2821,7099,-326,2041,7518,-120,2641,7233,0,0,0,206,600,-285,695.5,4575.4,0.019,0.102,1.128,-1.683,-0.797,-3.196,621.1,1,0.1271,-0.2743,0.4630,-0.8332,209.7,-19.8,0.0
266391,2026-08-29_07-36-41.394-240,v3.5.9,3.51,12.0,400,981,2769,7388,-45,2828,7111,-331,2040,7509,-125,2648,7245,0,0,0,206,608,-264,694.1,4566.5,0.020,0.103,1.127,-1.865,-0.719,-3.199,620.0,1,0.1268,-0.2744,0.4630,-0.8333,209.7,-19.9,0.0
266429,2026-08-29_07-36-41.430-240,v3.5.9,3.51,12.0,400,981,2769,7388,-43,2787,7103,-331,2040,7509,-123,2607,7238,0,0,0,208,567,-271,662.0,4355.0,0.027,0.091,1.123,-2.814,-0.453,-3.373,593.0,1,0.1266,-0.2747,0.4639,-0.8327,209.7,-19.9,0.0
266480,2026-08-29_07-36-41.481-240,v3.5.9,3.51,12.0,400,980,2763,7376,-43,2787,7103,-331,2035,7497,-123,2607,7238,0,0,0,208,572,-259,661.5,4351.7,0.018,0.102,1.126,-2.356,-0.625,-3.674,592.6,1,0.1267,-0.2746,0.4645,-0.8324,209.7,-19.8,0.0
266509,2026-08-29_07-36-41.511-240,v3.5.9,3.51,12.0,400,918,2772,7405,-56,2817,7101,-392,2044,7517,-136,2637,7235,0,0,0,256,593,-282,704.8,4636.7,0.021,0.110,1.127,-1.755,-0.688,-2.884,628.9,1,0.1261,-0.2748,0.4642,-0.8325,209.6,-19.9,0.0
266541,2026-08-29_07-36-41.544-240,v3.5.9,3.51,12.0,400,985,2768,7359,-56,2817,7101,-323,2041,7480,-136,2637,7235,0,0,0,187,596,-245,671.0,4414.3,0.022,0.103,1.122,-1.770,-0.281,-3.254,600.6,1,0.1262,-0.2752,0.4640,-0.8325,209.7,-19.9,0.0
266586,2026-08-29_07-36-41.589-240,v3.5.9,3.51,12.0,400,985,2768,7359,-56,2810,7103,-323,2041,7480,-136,2630,7237,0,0,0,187,589,-243,664.0,4368.6,0.024,0.102,1.124,-3.883,-0.344,-6.851,594.7,1,0.1292,-0.2738,0.4672,-0.8307,209.9,-19.5,0.0
266616,2026-08-29_07-36-41.617-240,v3.5.9,3.51,12.0,400,981,2769,7398,-47,2821,7100,-333,2039,7520,-127,2641,7234,0,0,0,206,602,-286,697.6,4589.4,0.023,0.102,1.125,-2.466,-1.328,-3.303,622.9,1,0.1285,-0.2732,0.4679,-0.8306,209.8,-19.5,0.0
266659,2026-08-29_07-36-41.661-240,v3.5.9,3.51,12.0,400,984,2772,7392,-47,2821,7100,-329,2042,7514,-127,2641,7234,0,0,0,202,599,-280,691.4,4548.5,0.022,0.106,1.125,-1.837,-0.312,-3.432,617.7,1,0.1287,-0.2735,0.4678,-0.8305,209.9,-19.5,0.0
266688,2026-08-29_07-36-41.690-240,v3.5.9,3.51,12.0,400,984,2772,7392,-57,2828,7108,-329,2042,7514,-137,2648,7242,0,0,0,192,606,-272,691.4,4548.9,0.022,0.103,1.128,-1.181,-0.781,-3.233,617.7,1,0.1287,-0.2733,0.4670,-0.8310,209.9,-19.5,0.0
266716,2026-08-29_07-36-41.718-240,v3.5.9,3.51,12.0,400,989,2766,7390,-57,2828,7108,-324,2036,7513,-137,2648,7242,0,0,0,187,612,-271,694.9,4572.0,0.022,0.103,1.125,-2.532,-0.797,-3.355,620.7,1,0.1283,-0.2733,0.4677,-0.8307,209.8,-19.5,0.0
266746,2026-08-29_07-36-41.749-240,v3.5.9,3.51,12.0,400,989,2766,7390,-49,2808,7104,-324,2036,7513,-129,2628,7239,0,0,0,195,592,-274,680.9,4479.3,0.026,0.102,1.124,-1.490,-0.797,-3.362,608.9,1,0.1282,-0.2730,0.4673,-0.8310,209.8,-19.5,0.0
266791,2026-08-29_07-36-41.794-240,v3.5.9,3.51,12.0,400,992,2752,7416,-44,2822,7093,-326,2019,7541,-124,2642,7227,0,0,0,202,623,-314,726.3,4778.4,0.022,0.102,1.122,-2.450,-0.984,-3.150,647.0,1,0.1276,-0.2729,0.4679,-0.8309,209.7,-19.5,0.0
266831,2026-08-29_07-36-41.833-240,v3.5.9,3.51,12.0,400,979,2777,7385,-44,2822,7093,-333,2049,7505,-124,2642,7227,0,0,0,209,593,-278,687.5,4522.8,0.021,0.107,1.129,-2.247,-0.766,-3.141,614.4,1,0.1271,-0.2729,0.4682,-0.8308,209.7,-19.5,0.0
266858,2026-08-29_07-36-42.860-240,v3.5.9,3.51,12.0,400,966,2770,7386,-53,2818,7104,-345,2042,7505,-133,2638,7238,0,0,0,212,596,-267,686.6,4517.2,0.019,0.097,1.127,-2.451,-0.484,-2.933,613.7,1,0.1265,-0.2734,0.4686,-0.8305,209.7,-19.6,0.0
266901,2026-08-29_07-36-42.903-240,v3.5.9,3.51,12.0,400,966,2770,7386,-45,2819,7087,-345,2042,7505,-125,2639,7221,0,0,0,220,597,-284,696.8,4583.9,0.024,0.109,1.123,-1.667,-0.547,-3.169,622.2,1,0.1263,-0.2736,0.4683,-0.8306,209.7,-19.6,0.0
266949,2026-08-29_07-36-42.951-240,v3.5.9,3.51,12.0,400,974,2774,7382,-45,2819,7087,-337,2046,7502,-125,2639,7221,0,0,0,212,593,-281,689.6,4536.9,0.028,0.103,1.124,-3.809,-0.547,-6.786,616.2,1,0.1292,-0.2720,0.4714,-0.8289,209.9,-19.2,0.0
266978,2026-08-29_07-36-42.980-240,v3.5.9,3.51,12.0,400,984,2798,7391,-35,2797,7141,-329,2070,7511,-115,2615,7277,0,0,0,214,545,-234,630.5,4148.3,0.030,0.102,1.123,-2.541,-0.516,-3.026,566.6,1,0.1286,-0.2724,0.4720,-0.8285,209.9,-19.3,0.0
267009,2026-08-29_07-36-42.011-240,v3.5.9,3.51,12.0,400,984,2798,7391,-35,2797,7141,-329,2070,7511,-115,2615,7277,0,0,0,214,545,-234,630.5,4148.3,0.027,0.102,1.123,-1.418,-0.484,-3.331,566.6,1,0.1288,-0.2725,0.4714,-0.8288,209.9,-19.3,0.0
267039,2026-08-29_07-36-42.041-240,v3.5.9,3.51,12.0,400,945,2774,7351,-19,2818,7082,-359,2050,7466,-100,2638,7216,0,0,0,259,588,-250,689.4,4535.8,0.029,0.103,1.128,-1.716,-1.156,-3.628,616.1,1,0.1287,-0.2718,0.4714,-0.8290,209.8,-19.2,0.0
267068,2026-08-29_07-36-42.070-240,v3.5.9,3.51,12.0,400,986,2768,7411,-19,2818,7082,-330,2036,7534,-100,2638,7216,0,0,0,230,602,-318,718.6,4727.8,0.024,0.103,1.123,-1.165,-0.750,-3.206,640.6,1,0.1287,-0.2717,0.4706,-0.8295,209.8,-19.2,0.0
267121,2026-08-29_07-36-42.122-240,v3.5.9,3.51,12.0,400,989,2771,7396,-39,2819,7098,-325,2041,7519,-119,2639,7232,0,0,0,206,598,-287,694.6,4569.5,0.028,0.090,1.123,-0.988,-0.016,-3.056,620.3,1,0.1290,-0.2724,0.4695,-0.8299,209.9,-19.3,0.0
267164,2026-08-29_07-36-42.166-240,v3.5.9,3.51,12.0,400,989,2771,7396,-37,2810,7097,-325,2041,7519,-117,2630,7231,0,0,0,208,589,-288,687.8,4525.3,0.019,0.091,1.129,-3.142,-0.844,-3.599,614.7,1,0.1286,-0.2722,0.4709,-0.8292,209.8,-19.3,0.0
267192,2026-08-29_07-36-42.194-240,v3.5.9,3.51,12.0,400,998,2764,7396,-53,2816,7107,-317,2033,7520,-133,2636,7241,0,0,0,184,603,-279,689.4,4535.7,0.021,0.102,1.125,-1.046,-0.500,-2.968,616.0,1,0.1285,-0.2725,0.4699,-0.8297,209.8,-19.4,0.0
267241,2026-08-29_07-36-42.244-240,v3.5.9,3.51,12.0,400,989,2777,7385,-53,2816,7107,-324,2048,7507,-133,2636,7241,0,0,0,191,588,-266,673.0,4427.9,0.019,0.091,1.129,-2.056,-0.422,-2.873,602.3,1,0.1280,-0.2730,0.4698,-0.8297,209.8,-19.4,0.0
267269,2026-08-29_07-36-42.271-240,v3.5.9,3.51,12.0,400,989,2777,7385,-37,2816,7090,-324,2048,7507,-117,2636,7224,0,0,0,207,588,-283,684.6,4504.0,0.017,0.114,1.125,-2.001,-0.750,-2.778,612.0,1,0.1272,-0.2733,0.4698,-0.8297,209.8,-19.5,0.0
267299,2026-08-29_07-36-42.301-240,v3.5.9,3.51,12.0,400,990,2772,7386,-37,2816,7090,-323,2043,7508,-117,2636,7224,0,0,0,206,593,-284,689.0,4533.0,0.018,0.091,1.126,-1.795,-0.234,-3.672,615.7,1,0.1277,-0.2735,0.4697,-0.8296,209.8,-19.5,0.0
267327,2026-08-29_07-36-42.329-240,v3.5.9,3.51,12.0,400,989,2768,7394,-41,2815,7111,-325,2038,7517,-121,2635,7245,0,0,0,204,597,-272,687.0,4519.9,0.019,0.103,1.126,-1.967,-0.969,-2.906,614.0,1,0.1270,-0.2734,0.4697,-0.8298,209.7,-19.5,0.0
267376,2026-08-29_07-36-42.378-240,v3.5.9,3.51,12.0,400,989,2768,7394,-41,2794,7106,-325,2038,7517,-121,2614,7241,0,0,0,204,576,-276,670.5,4411.2,0.022,0.100,1.123,-1.979,-0.484,-2.772,600.2,1,0.1263,-0.2739,0.4696,-0.8298,209.7,-19.6,0.0
267412,2026-08-29_07-36-42.413-240,v3.5.9,3.51,12.0,400,994,2771,7380,-41,2794,7106,-318,2042,7503,-121,2614,7241,0,0,0,197,572,-262,659.3,4337.3,0.024,0.102,1.125,-2.372,-0.328,-3.484,590.7,1,0.1264,-0.2743,0.4700,-0.8294,209.8,-19.6,0.0
267458,2026-08-29_07-36-42.460-240,v3.5.9,3.51,12.0,400,969,2771,7385,-40,2806,7085,-342,2043,7504,-120,2626,7219,0,0,0,222,583,-285,685.9,4512.2,0.025,0.102,1.125,-2.345,-0.438,-3.373,613.0,1,0.1263,-0.2745,0.4705,-0.8290,209.8,-19.7,0.0
267487,2026-08-29_07-36-42.488-240,v3.5.9,3.51,12.0,400,983,2775,7389,-51,2822,7103,-330,2046,7510,-131,2642,7237,0,0,0,199,596,-273,685.1,4507.2,0.026,0.102,1.124,-2.630,-0.562,-3.118,612.4,1,0.1258,-0.2749,0.4712,-0.8286,209.8,-19.7,0.0
267531,2026-08-29_07-36-42.533-240,v3.5.9,3.51,12.0,400,983,2775,7389,-51,2822,7103,-330,2046,7510,-131,2642,7237,0,0,0,199,596,-273,685.1,4507.2,0.021,0.095,1.125,-2.120,-0.500,-3.359,612.4,1,0.1257,-0.2751,0.4714,-0.8285,209.8,-19.7,0.0
267557,2026-08-29_07-36-42.559-240,v3.5.9,3.51,12.0,400,938,2772,7397,22,2815,7142,-372,2044,7512,-60,2633,7277,0,0,0,312,589,-235,706.7,4649.6,0.024,0.116,1.125,-1.771,-0.312,-3.506,630.6,1,0.1260,-0.2753,0.4712,-0.8284,209.8,-19.7,0.0
267591,2026-08-29_07-36-42.594-240,v3.5.9,3.51,12.0,400,998,2765,7398,22,2815,7142,-317,2034,7522,-60,2633,7277,0,0,0,257,599,-245,696.3,4581.1,0.022,0.095,1.125,1.477,-0.922,-5.255,621.8,1,0.1289,-0.2734,0.4684,-0.8302,209.9,-19.5,0.0
267636,2026-08-29_07-36-42.638-240,v3.5.9,3.51,12.0,400,998,2765,7398,-40,2822,7112,-317,2034,7522,-120,2642,7246,0,0,0,197,608,-276,696.2,4580.0,0.025,0.094,1.124,-2.157,-0.828,-3.392,621.7,1,0.1287,-0.2732,0.4688,-0.8301,209.9,-19.4,0.0
267666,2026-08-29_07-36-42.669-240,v3.5.9,3.51,12.0,400,992,2766,7373,-38,2820,7108,-319,2038,7496,-118,2640,7242,0,0,0,201,602,-254,683.6,4497.4,0.026,0.104,1.124,-2.330,-0.609,-3.255,611.2,1,0.1283,-0.2733,0.4692,-0.8299,209.9,-19.5,0.0
267706,2026-08-29_07-36-42.708-240,v3.5.9,3.51,12.0,400,996,2767,7389,-38,2820,7108,-318,2037,7513,-118,2640,7242,0,0,0,200,603,-271,690.7,4544.0,0.023,0.102,1.127,-1.721,-0.531,-3.138,617.1,1,0.1282,-0.2736,0.4689,-0.8300,209.9,-19.5,0.0
267739,2026-08-29_07-36-42.740-240,v3.5.9,3.51,12.0,400,996,2767,7389,-33,2812,7098,-318,2037,7513,-113,2632,7232,0,0,0,205,595,-281,689.2,4534.3,0.018,0.093,1.124,-1.622,-0.641,-2.997,615.9,1,0.1278,-0.2737,0.4685,-0.8302,209.8,-19.6,0.0
267765,2026-08-29_07-36-42.768-240,v3.5.9,3.51,12.0,400,990,2758,7391,-33,2812,7098,-324,2027,7515,-113,2632,7232,0,0,0,211,605,-283,700.5,4608.2,0.026,0.123,1.127,-2.142,-0.703,-3.148,625.3,1,0.1274,-0.2738,0.4687,-0.8301,209.8,-19.6,0.0
267794,2026-08-29_07-36-42.796-240,v3.5.9,3.51,12.0,400,990,2758,7391,-45,2817,7094,-324,2027,7515,-125,2637,7228,0,0,0,199,610,-287,702.9,4624.3,0.020,0.103,1.127,-2.464,-0.312,-2.799,627.4,1,0.1267,-0.2746,0.4690,-0.8298,209.8,-19.7,0.0
267822,2026-08-29_07-36-42.824-240,v3.5.9,3.51,12.0,400,1002,2768,7395,-45,2817,7094,-313,2037,7520,-125,2637,7228,0,0,0,188,600,-292,693.3,4560.9,0.018,0.108,1.130,-2.490,-0.141,-3.470,619.3,1,0.1268,-0.2751,0.4696,-0.8293,209.9,-19.7,0.0
267851,2026-08-29_07-36-42.854-240,v3.5.9,3.51,12.0,400,991,2771,7387,-38,2817,7113,-322,2042,7510,-118,2637,7247,0,0,0,204,595,-263,681.8,4485.3,0.017,0.103,1.128,-2.290,-0.422,-3.279,609.6,1,0.1267,-0.2755,0.4700,-0.8290,209.9,-19.7,0.0
267899,2026-08-29_07-36-43.901-240,v3.5.9,3.51,12.0,400,991,2771,7387,-46,2816,7097,-322,2042,7510,-126,2636,7231,0,0,0,196,594,-279,684.9,4505.9,0.023,0.102,1.124,-2.281,-0.703,-3.482,612.2,1,0.1266,-0.2754,0.4704,-0.8288,209.9,-19.7,0.0
267939,2026-08-29_07-36-43.941-240,v3.5.9,3.51,12.0,400,996,2770,7378,-46,2816,7097,-316,2041,7501,-126,2636,7231,0,0,0,190,595,-270,680.5,4476.7,0.019,0.097,1.126,-1.527,-0.500,-3.520,608.5,1,0.1269,-0.2754,0.4701,-0.8289,209.9,-19.7,0.0
267969,2026-08-29_07-36-43.971-240,v3.5.9,3.51,12.0,400,989,2772,7395,-47,2809,7100,-325,2042,7517,-127,2629,7234,0,0,0,198,587,-283,681.1,4480.8,0.017,0.112,1.125,-2.165,-0.812,-3.188,609.0,1,0.1264,-0.2754,0.4703,-0.8288,209.9,-19.7,0.0
268004,2026-08-29_07-36-43.006-240,v3.5.9,3.51,12.0,400,989,2772,7395,-33,2802,7098,-325,2042,7517,-113,2622,7233,0,0,0,212,580,-284,679.7,4471.7,0.027,0.102,1.122,-1.509,-0.844,-3.676,607.9,1,0.1267,-0.2749,0.4701,-0.8291,209.8,-19.7,0.0
268057,2026-08-29_07-36-43.060-240,v3.5.9,3.51,12.0,400,979,2766,7394,-33,2802,7098,-334,2036,7515,-113,2622,7233,0,0,0,221,586,-282,686.8,4518.7,0.026,0.089,1.125,-2.479,-0.734,-3.512,613.9,1,0.1265,-0.2748,0.4708,-0.8288,209.8,-19.7,0.0
268089,2026-08-29_07-36-43.091-240,v3.5.9,3.51,12.0,400,929,2763,7340,-19,2816,7168,-372,2040,7453,-100,2634,7304,0,0,0,272,594,-149,670.1,4408.5,0.023,0.114,1.126,-2.113,-0.453,-3.597,599.8,1,0.1267,-0.2749,0.4710,-0.8286,209.9,-19.6,0.0
268118,2026-08-29_07-36-43.120-240,v3.5.9,3.51,12.0,400,1002,2764,7363,-44,2864,7103,-308,2036,7487,-124,2684,7236,0,0,0,184,648,-251,718.9,4729.3,0.026,0.103,1.125,-1.133,-0.766,-3.369,640.7,1,0.1268,-0.2747,0.4703,-0.8291,209.8,-19.6,0.0
268171,2026-08-29_07-36-43.172-240,v3.5.9,3.51,12.0,400,998,2763,7369,-44,2864,7103,-313,2035,7493,-124,2684,7236,0,0,0,189,649,-257,723.2,4757.7,0.024,0.103,1.127,-1.207,-0.703,-3.309,644.4,1,0.1269,-0.2745,0.4695,-0.8295,209.8,-19.6,0.0
268214,2026-08-29_07-36-43.216-240,v3.5.9,3.51,12.0,400,998,2763,7369,-43,2813,7065,-313,2035,7493,-123,2634,7199,0,0,0,190,599,-294,693.8,4564.4,0.023,0.101,1.124,-3.293,-0.422,-3.078,619.7,1,0.1262,-0.2751,0.4709,-0.8287,209.8,-19.7,0.0
268242,2026-08-29_07-36-43.244-240,v3.5.9,3.51,12.0,400,1003,2778,7392,-43,2815,7101,-312,2048,7516,-123,2635,7235,0,0,0,189,587,-281,677.7,4458.4,0.020,0.102,1.127,-1.961,-0.281,-3.053,606.2,1,0.1260,-0.2757,0.4708,-0.8285,209.8,-19.8,0.0
268286,2026-08-29_07-36-43.288-240,v3.5.9,3.51,12.0,400,1003,2766,7390,-43,2815,7101,-312,2036,7515,-123,2635,7235,0,0,0,189,599,-280,687.7,4524.3,0.024,0.109,1.125,-1.073,-0.984,-3.422,614.6,1,0.1260,-0.2752,0.4700,-0.8291,209.8,-19.7,0.0
268317,2026-08-29_07-36-43.319-240,v3.5.9,3.51,12.0,400,1003,2766,7390,-4,2822,7108,-312,2036,7515,-85,2642,7242,0,0,0,227,606,-273,702.3,4620.7,0.019,0.102,1.126,-2.309,-0.516,-3.593,626.9,1,0.1261,-0.2752,0.4705,-0.8288,209.8,-19.7,0.0
268346,2026-08-29_07-36-43.349-240,v3.5.9,3.51,12.0,400,996,2770,7394,-4,2822,7108,-319,2040,7518,-85,2642,7242,0,0,0,234,602,-276,702.4,4620.9,0.020,0.103,1.125,-1.646,-0.312,-3.506,626.9,1,0.1265,-0.2754,0.4702,-0.8289,209.9,-19.7,0.0
268375,2026-08-29_07-36-43.376-240,v3.5.9,3.51,12.0,400,998,2768,7385,-49,2811,7101,-315,2038,7509,-129,2631,7235,0,0,0,186,593,-274,679.2,4468.5,0.023,0.102,1.125,-3.388,-0.188,-3.024,607.5,1,0.1258,-0.2763,0.4716,-0.8279,209.9,-19.8,0.0
268424,2026-08-29_07-36-43.426-240,v3.5.9,3.51,12.0,400,998,2768,7385,-48,2787,7102,-315,2038,7509,-128,2607,7237,0,0,0,187,569,-272,657.8,4327.7,0.017,0.096,1.129,-1.796,-0.672,-3.455,589.5,1,0.1259,-0.2762,0.4715,-0.8279,209.9,-19.8,0.0
268463,2026-08-29_07-36-43.465-240,v3.5.9,3.51,12.0,400,996,2775,7389,-48,2787,7102,-318,2045,7512,-128,2607,7237,0,0,0,190,562,-275,653.9,4301.9,0.024,0.103,1.124,-1.977,-0.844,-3.424,586.2,1,0.1257,-0.2760,0.4717,-0.8280,209.9,-19.8,0.0
268493,2026-08-29_07-36-43.495-240,v3.5.9,3.51,12.0,400,994,2768,7385,-44,2816,7110,-319,2038,7508,-124,2636,7244,0,0,0,195,598,-264,682.1,4487.8,0.028,0.102,1.125,-2.252,-1.172,-3.463,609.9,1,0.1253,-0.2755,0.4722,-0.8279,209.8,-19.7,0.0
268526,2026-08-29_07-36-43.527-240,v3.5.9,3.51,12.0,400,994,2768,7385,-33,2811,7095,-319,2038,7508,-113,2631,7229,0,0,0,206,593,-279,687.0,4519.5,0.030,0.098,1.126,-2.447,-1.203,-2.863,614.0,1,0.1242,-0.2753,0.4727,-0.8279,209.7,-19.8,0.0
268580,2026-08-29_07-36-43.583-240,v3.5.9,3.51,12.0,400,983,2763,7383,-33,2811,7095,-329,2034,7505,-113,2631,7229,0,0,0,216,597,-276,692.3,4554.4,0.026,0.103,1.127,-1.335,-1.094,-3.000,618.4,1,0.1237,-0.2749,0.4720,-0.8284,209.6,-19.8,0.0
268609,2026-08-29_07-36-43.611-240,v3.5.9,3.51,12.0,400,948,2762,7396,-16,2808,7116,-363,2033,7513,-97,2627,7251,0,0,0,266,594,-262,701.6,4615.8,0.034,0.102,1.125,-2.630,-0.797,-3.587,626.3,1,0.1235,-0.2747,0.4729,-0.8280,209.6,-19.8,0.0
268639,2026-08-29_07-36-43.641-240,v3.5.9,3.51,12.0,400,994,2762,7361,-16,2808,7116,-315,2034,7484,-97,2627,7251,0,0,0,218,593,-233,673.4,4430.2,0.026,0.102,1.123,-2.304,-0.438,-2.585,602.6,1,0.1226,-0.2755,0.4730,-0.8279,209.5,-19.9,0.0
268685,2026-08-29_07-36-43.686-240,v3.5.9,3.51,12.0,400,994,2762,7361,-38,2877,7105,-315,2034,7484,-118,2697,7237,0,0,0,197,663,-247,734.4,4831.8,0.027,0.117,1.125,-4.948,-0.641,-0.788,653.8,1,0.1188,-0.2774,0.4753,-0.8264,209.4,-20.2,0.0
268714,2026-08-29_07-36-43.716-240,v3.5.9,3.51,12.0,400,997,2775,7379,-55,2809,7098,-315,2046,7502,-135,2629,7232,0,0,0,180,583,-270,667.2,4389.6,0.026,0.099,1.126,-1.809,-0.359,-2.727,597.4,1,0.1183,-0.2781,0.4750,-0.8265,209.4,-20.3,0.0
268752,2026-08-29_07-36-43.753-240,v3.5.9,3.51,12.0,400,993,2768,7387,-55,2809,7098,-320,2038,7510,-135,2629,7232,0,0,0,185,591,-278,678.8,4465.9,0.025,0.103,1.130,-1.654,-0.391,-3.177,607.1,1,0.1182,-0.2784,0.4746,-0.8266,209.4,-20.4,0.0
268790,2026-08-29_07-36-43.791-240,v3.5.9,3.51,12.0,400,993,2768,7387,-47,2802,7098,-320,2038,7510,-127,2622,7233,0,0,0,193,584,-277,674.6,4437.9,0.021,0.089,1.124,-2.113,-0.641,-3.254,603.6,1,0.1180,-0.2785,0.4748,-0.8265,209.4,-20.4,0.0
268818,2026-08-29_07-36-43.819-240,v3.5.9,3.51,12.0,400,992,2738,7414,-47,2818,7100,-325,2004,7540,-127,2638,7234,0,0,0,198,634,-306,731.3,4811.2,0.021,0.120,1.128,-2.359,-0.656,-3.149,651.2,1,0.1175,-0.2787,0.4752,-0.8263,209.3,-20.4,0.0
268871,2026-08-29_07-36-44.872-240,v3.5.9,3.51,12.0,400,986,2774,7394,-47,2818,7100,-328,2044,7516,-127,2638,7234,0,0,0,201,594,-282,687.6,4523.5,0.022,0.104,1.125,-2.475,-0.406,-3.100,614.5,1,0.1171,-0.2792,0.4757,-0.8259,209.3,-20.5,0.0
268899,2026-08-29_07-36-44.901-240,v3.5.9,3.51,12.0,400,991,2768,7400,-44,2827,7105,-324,2037,7523,-124,2647,7239,0,0,0,200,610,-284,702.0,4618.2,0.021,0.103,1.126,-2.255,-0.688,-2.938,626.6,1,0.1164,-0.2794,0.4759,-0.8257,209.3,-20.5,0.0
268947,2026-08-29_07-36-44.949-240,v3.5.9,3.51,12.0,400,991,2768,7400,-41,2808,7097,-324,2037,7523,-121,2628,7231,0,0,0,203,591,-292,689.7,4537.8,0.022,0.103,1.126,-2.155,-0.953,-3.483,616.3,1,0.1162,-0.2791,0.4763,-0.8257,209.3,-20.5,0.0
268986,2026-08-29_07-36-44.988-240,v3.5.9,3.51,12.0,400,996,2770,7393,-41,2808,7097,-318,2040,7517,-121,2628,7231,0,0,0,197,588,-286,682.9,4492.7,0.021,0.097,1.126,-1.835,-0.391,-3.397,610.6,1,0.1163,-0.2793,0.4762,-0.8256,209.3,-20.5,0.0
269015,2026-08-29_07-36-44.016-240,v3.5.9,3.51,12.0,400,975,2774,7384,-54,2822,7098,-336,2046,7504,-134,2642,7232,0,0,0,202,596,-272,685.6,4510.3,0.023,0.106,1.127,-2.228,-1.062,-3.639,612.8,1,0.1162,-0.2788,0.4767,-0.8256,209.2,-20.5,0.0
269054,2026-08-29_07-36-44.056-240,v3.5.9,3.51,12.0,400,975,2774,7384,-52,2807,7110,-336,2046,7504,-132,2627,7245,0,0,0,204,581,-259,668.0,4394.9,0.028,0.106,1.124,-2.128,-1.125,-3.498,598.1,1,0.1159,-0.2782,0.4771,-0.8256,209.2,-20.4,0.0
269104,2026-08-29_07-36-44.106-240,v3.5.9,3.51,12.0,400,979,2774,7384,-52,2807,7110,-333,2045,7505,-132,2627,7245,0,0,0,201,582,-260,668.4,4397.2,0.025,0.103,1.125,-1.896,-0.812,-3.127,598.4,1,0.1154,-0.2782,0.4770,-0.8257,209.1,-20.4,0.0
269134,2026-08-29_07-36-44.136-240,v3.5.9,3.51,12.0,400,916,2752,7388,-51,2818,7100,-391,2024,7501,-131,2638,7234,0,0,0,260,614,-267,718.3,4725.3,0.025,0.103,1.125,-3.162,0.062,-3.695,640.2,1,0.1157,-0.2789,0.4783,-0.8246,209.2,-20.4,0.0
269164,2026-08-29_07-36-44.165-240,v3.5.9,3.51,12.0,400,993,2762,7378,-51,2818,7100,-319,2033,7501,-131,2638,7234,0,0,0,188,605,-267,687.5,4523.0,0.021,0.103,1.128,-2.710,-0.359,-3.506,614.4,1,0.1156,-0.2792,0.4792,-0.8240,209.3,-20.4,0.0
269211,2026-08-29_07-36-44.213-240,v3.5.9,3.51,12.0,400,993,2762,7378,-33,2884,7110,-319,2033,7501,-114,2704,7242,0,0,0,205,671,-259,747.9,4920.4,0.022,0.102,1.125,-2.023,-0.672,-3.379,665.1,1,0.1155,-0.2792,0.4793,-0.8240,209.3,-20.4,0.0
269239,2026-08-29_07-36-44.241-240,v3.5.9,3.51,12.0,400,998,2770,7356,-50,2818,7100,-311,2043,7479,-130,2638,7234,0,0,0,181,595,-245,668.4,4397.6,0.020,0.103,1.132,-1.208,-0.750,-3.687,598.4,1,0.1160,-0.2788,0.4788,-0.8244,209.3,-20.4,0.0
269278,2026-08-29_07-36-44.280-240,v3.5.9,3.51,12.0,400,991,2766,7385,-50,2818,7100,-322,2036,7508,-130,2638,7234,0,0,0,192,602,-274,688.7,4531.1,-0.000,0.106,1.121,-2.373,-0.594,-4.079,615.5,1,0.1165,-0.2785,0.4795,-0.8240,209.3,-20.3,0.0
269319,2026-08-29_07-36-44.321-240,v3.5.9,3.51,12.0,400,994,2765,7383,-49,2813,7108,-319,2036,7506,-129,2633,7242,0,0,0,190,597,-264,679.9,4472.7,0.016,0.103,1.129,-1.178,-0.578,-2.603,608.0,1,0.1159,-0.2789,0.4785,-0.8245,209.3,-20.4,0.0
269367,2026-08-29_07-36-44.369-240,v3.5.9,3.51,12.0,400,994,2765,7383,-47,2815,7106,-319,2036,7506,-127,2635,7240,0,0,0,192,599,-266,683.0,4493.1,0.016,0.102,1.127,-2.493,-0.156,-3.631,610.6,1,0.1162,-0.2793,0.4791,-0.8240,209.3,-20.4,0.0
269400,2026-08-29_07-36-44.404-240,v3.5.9,3.51,12.0,400,996,2771,7398,-47,2815,7106,-319,2040,7522,-127,2635,7240,0,0,0,192,595,-282,685.9,4512.3,0.021,0.103,1.126,-1.865,-0.719,-3.199,613.1,1,0.1159,-0.2793,0.4791,-0.8240,209.3,-20.4,0.0
269430,2026-08-29_07-36-44.431-240,v3.5.9,3.51,12.0,400,990,2766,7389,-39,2819,7103,-323,2036,7512,-119,2639,7237,0,0,0,204,603,-275,693.4,4562.1,0.023,0.102,1.126,-2.230,-0.578,-2.988,619.4,1,0.1154,-0.2796,0.4793,-0.8239,209.3,-20.5,0.0
269474,2026-08-29_07-36-44.476-240,v3.5.9,3.51,12.0,400,990,2766,7389,-37,2817,7100,-323,2036,7512,-117,2637,7234,0,0,0,206,601,-278,693.5,4562.4,0.022,0.094,1.124,-1.998,-0.922,-2.960,619.5,1,0.1147,-0.2796,0.4793,-0.8240,209.2,-20.5,0.0
269512,2026-08-29_07-36-44.515-240,v3.5.9,3.51,12.0,400,998,2779,7386,-37,2817,7100,-315,2050,7509,-117,2637,7234,0,0,0,198,587,-275,677.8,4459.1,0.025,0.098,1.126,-2.150,-0.703,-3.287,606.3,1,0.1144,-0.2796,0.4795,-0.8239,209.2,-20.6,0.0
269544,2026-08-29_07-36-44.546-240,v3.5.9,3.51,12.0,400,995,2764,7389,-72,2836,7110,-319,2034,7513,-151,2656,7244,0,0,0,168,622,-269,698.2,4593.4,0.025,0.087,1.123,-3.244,-0.625,-3.900,623.4,1,0.1144,-0.2795,0.4811,-0.8230,209.2,-20.5,0.0
269578,2026-08-29_07-36-44.579-240,v3.5.9,3.51,12.0,400,995,2764,7389,-53,2812,7110,-319,2034,7513,-133,2632,7245,0,0,0,186,598,-268,681.2,4481.5,0.024,0.126,1.124,-2.475,-0.953,-3.100,609.1,1,0.1137,-0.2794,0.4817,-0.8228,209.2,-20.5,0.0
269624,2026-08-29_07-36-44.626-240,v3.5.9,3.51,12.0,400,982,2773,7379,-53,2812,7110,-329,2045,7500,-133,2632,7245,0,0,0,196,587,-255,669.3,4403.5,0.021,0.110,1.128,-0.991,-0.578,-3.091,599.2,1,0.1137,-0.2795,0.4807,-0.8234,209.1,-20.5,0.0
269651,2026-08-29_07-36-44.654-240,v3.5.9,3.51,12.0,400,915,2781,7384,-66,2821,7107,-391,2055,7495,-145,2641,7241,0,0,0,246,586,-254,684.4,4502.8,0.027,0.113,1.124,-3.131,-0.875,-3.641,611.8,1,0.1133,-0.2793,0.4821,-0.8227,209.1,-20.5,0.0
269686,2026-08-29_07-36-44.688-240,v3.5.9,3.51,12.0,400,915,2781,7384,-66,2821,7107,-391,2055,7495,-145,2641,7241,0,0,0,246,586,-254,684.4,4502.8,0.020,0.116,1.124,-1.112,-0.578,-3.363,611.8,1,0.1136,-0.2792,0.4812,-0.8231,209.1,-20.5,0.0
269714,2026-08-29_07-36-44.715-240,v3.5.9,3.51,12.0,400,982,2765,7378,-46,2873,7102,-329,2036,7500,-126,2693,7234,0,0,0,203,657,-266,737.3,4850.7,0.020,0.101,1.124,-2.706,-0.500,-3.219,656.2,1,0.1131,-0.2796,0.4820,-0.8226,209.1,-20.5,0.0
269749,2026-08-29_07-36-44.751-240,v3.5.9,3.51,12.0,400,989,2785,7365,-46,2873,7102,-320,2059,7486,-126,2693,7234,0,0,0,194,634,-252,709.3,4666.4,0.022,0.103,1.127,-1.786,-0.312,-2.938,632.7,1,0.1129,-0.2802,0.4817,-0.8226,209.1,-20.6,0.0
269788,2026-08-29_07-36-44.790-240,v3.5.9,3.51,12.0,400,989,2785,7365,-46,2823,7104,-320,2059,7486,-126,2643,7238,0,0,0,194,584,-248,663.5,4365.0,0.024,0.110,1.128,-2.130,-0.391,-3.533,594.3,1,0.1130,-0.2804,0.4820,-0.8224,209.2,-20.6,0.0
269819,2026-08-29_07-36-44.821-240,v3.5.9,3.51,12.0,400,991,2775,7390,-59,2818,7103,-323,2046,7512,-139,2638,7237,0,0,0,184,592,-275,678.2,4461.8,0.024,0.099,1.126,-1.067,-0.641,-3.191,606.6,1,0.1131,-0.2803,0.4811,-0.8229,209.2,-20.6,0.0
269858,2026-08-29_07-36-45.860-240,v3.5.9,3.51,12.0,400,989,2773,7388,-59,2818,7103,-324,2044,7510,-139,2638,7237,0,0,0,185,594,-273,679.4,4469.8,0.024,0.099,1.121,-2.910,-1.156,-3.227,607.6,1,0.1122,-0.2800,0.4822,-0.8225,209.1,-20.6,0.0
269892,2026-08-29_07-36-45.895-240,v3.5.9,3.51,12.0,400,989,2773,7388,-46,2828,7105,-324,2044,7510,-126,2648,7239,0,0,0,198,604,-271,691.0,4546.0,0.021,0.110,1.124,-2.338,-0.828,-3.612,617.4,1,0.1121,-0.2798,0.4827,-0.8223,209.0,-20.6,0.0
269937,2026-08-29_07-36-45.940-240,v3.5.9,3.51,12.0,400,984,2769,7396,-52,2816,7103,-330,2039,7518,-132,2636,7237,0,0,0,198,597,-281,688.9,4532.2,0.022,0.103,1.126,-2.200,-0.312,-2.717,615.6,1,0.1115,-0.2805,0.4828,-0.8221,209.0,-20.7,0.0
269978,2026-08-29_07-36-45.980-240,v3.5.9,3.51,12.0,400,988,2765,7378,-52,2816,7103,-323,2036,7500,-132,2636,7237,0,0,0,191,600,-263,682.4,4489.4,0.026,0.080,1.126,-1.858,-0.812,-3.438,610.1,1,0.1114,-0.2803,0.4828,-0.8222,209.0,-20.7,0.0
270006,2026-08-29_07-36-45.008-240,v3.5.9,3.51,12.0,400,990,2771,7387,-52,2818,7114,-323,2042,7509,-132,2638,7248,0,0,0,191,596,-261,678.1,4461.2,0.029,0.123,1.125,-2.527,-0.750,-3.376,606.5,1,0.1110,-0.2803,0.4835,-0.8218,209.0,-20.7,0.0
270048,2026-08-29_07-36-45.049-240,v3.5.9,3.51,12.0,400,990,2771,7387,-50,2820,7105,-323,2042,7509,-130,2640,7239,0,0,0,193,598,-270,683.9,4499.5,0.023,0.108,1.124,-1.378,-0.891,-3.949,611.4,1,0.1116,-0.2796,0.4832,-0.8221,209.0,-20.6,0.0
270096,2026-08-29_07-36-45.098-240,v3.5.9,3.51,12.0,400,991,2764,7388,-50,2820,7105,-322,2034,7511,-130,2640,7239,0,0,0,192,606,-272,691.4,4548.9,0.021,0.109,1.126,-1.615,-0.453,-2.640,617.7,1,0.1110,-0.2802,0.4826,-0.8224,209.0,-20.7,0.0
270123,2026-08-29_07-36-45.125-240,v3.5.9,3.51,12.0,400,968,2768,7387,-44,2815,7115,-343,2039,7507,-124,2634,7250,0,0,0,219,595,-257,684.1,4500.9,0.018,0.099,1.124,-2.342,-0.703,-3.339,611.6,1,0.1107,-0.2802,0.4831,-0.8221,208.9,-20.7,0.0
270159,2026-08-29_07-36-45.161-240,v3.5.9,3.51,12.0,400,968,2768,7387,-44,2815,7115,-343,2039,7507,-124,2634,7250,0,0,0,219,595,-257,684.1,4500.9,0.022,0.109,1.127,-2.230,-0.250,-3.331,611.6,1,0.1107,-0.2806,0.4834,-0.8218,209.0,-20.7,0.0
270188,2026-08-29_07-36-45.190-240,v3.5.9,3.51,12.0,400,955,2766,7379,-68,2800,7093,-354,2038,7497,-147,2620,7228,0,0,0,207,582,-269,673.7,4432.5,0.022,0.109,1.126,-1.471,-0.703,-3.517,602.9,1,0.1109,-0.2804,0.4830,-0.8221,209.0,-20.7,0.0
270216,2026-08-29_07-36-45.218-240,v3.5.9,3.51,12.0,400,986,2763,7402,-52,2819,7109,-329,2032,7525,-132,2639,7243,0,0,0,197,607,-282,697.7,4590.1,0.021,0.102,1.125,-1.413,-0.688,-3.604,623.0,1,0.1112,-0.2802,0.4826,-0.8223,209.0,-20.7,0.0
270267,2026-08-29_07-36-45.269-240,v3.5.9,3.51,12.0,400,984,2773,7359,-52,2819,7109,-324,2047,7480,-132,2639,7243,0,0,0,192,592,-237,666.0,4381.3,0.023,0.111,1.125,-0.805,-0.875,-2.801,596.3,1,0.1108,-0.2801,0.4813,-0.8232,208.9,-20.8,0.0
270311,2026-08-29_07-36-45.314-240,v3.5.9,3.51,12.0,400,984,2773,7359,-50,2811,7094,-324,2047,7480,-130,2631,7228,0,0,0,194,584,-252,665.0,4374.9,0.028,0.090,1.126,-1.947,-0.812,-2.935,595.5,1,0.1101,-0.2802,0.4813,-0.8233,208.9,-20.8,0.0
270338,2026-08-29_07-36-45.340-240,v3.5.9,3.51,12.0,400,986,2763,7392,-52,2802,7137,-327,2033,7515,-132,2621,7272,0,0,0,195,588,-243,665.4,4377.9,0.023,0.102,1.127,-2.393,-0.625,-3.364,595.9,1,0.1099,-0.2803,0.4818,-0.8230,208.8,-20.8,0.0
270389,2026-08-29_07-36-45.391-240,v3.5.9,3.51,12.0,400,988,2771,7386,-52,2802,7137,-325,2042,7508,-132,2621,7272,0,0,0,193,579,-236,654.4,4305.0,0.017,0.102,1.128,-1.928,-0.578,-4.245,586.6,1,0.1108,-0.2798,0.4821,-0.8228,208.9,-20.7,0.0
270417,2026-08-29_07-36-45.418-240,v3.5.9,3.51,12.0,400,988,2771,7386,-50,2820,7099,-325,2042,7508,-130,2640,7233,0,0,0,195,598,-275,686.5,4516.3,0.023,0.103,1.127,-1.894,-0.938,-3.218,613.6,1,0.1104,-0.2796,0.4821,-0.8229,208.8,-20.7,0.0
270446,2026-08-29_07-36-45.448-240,v3.5.9,3.51,12.0,400,985,2777,7386,-50,2820,7099,-327,2048,7507,-130,2640,7233,0,0,0,197,592,-274,681.4,4483.1,0.021,0.102,1.128,-2.160,-0.547,-3.335,609.3,1,0.1102,-0.2797,0.4824,-0.8228,208.8,-20.7,0.0
270473,2026-08-29_07-36-45.474-240,v3.5.9,3.51,12.0,400,987,2782,7387,-49,2820,7106,-326,2053,7508,-129,2640,7240,0,0,0,197,587,-268,674.7,4438.7,0.023,0.103,1.125,-1.916,-0.328,-3.224,603.7,1,0.1102,-0.2801,0.4823,-0.8227,208.9,-20.8,0.0
270521,2026-08-29_07-36-45.524-240,v3.5.9,3.51,12.0,400,987,2782,7387,-60,2812,7110,-326,2053,7508,-140,2632,7245,0,0,0,186,579,-263,662.6,4359.0,0.024,0.109,1.126,-2.386,-0.688,-3.476,593.5,1,0.1100,-0.2801,0.4829,-0.8224,208.9,-20.8,0.0
270567,2026-08-29_07-36-45.570-240,v3.5.9,3.51,12.0,400,996,2764,7382,-47,2811,7099,-317,2034,7506,-127,2631,7233,0,0,0,190,597,-273,683.4,4496.1,0.020,0.101,1.131,-1.640,-0.969,-3.059,611.0,1,0.1095,-0.2799,0.4825,-0.8227,208.8,-20.8,0.0
270617,2026-08-29_07-36-45.618-240,v3.5.9,3.51,12.0,400,979,2772,7386,-47,2811,7099,-333,2043,7507,-127,2631,7233,0,0,0,206,588,-274,680.6,4477.8,0.024,0.097,1.123,-2.499,-0.547,-3.140,608.7,1,0.1091,-0.2802,0.4831,-0.8223,208.8,-20.8,0.0
270646,2026-08-29_07-36-45.649-240,v3.5.9,3.51,12.0,400,988,2776,7383,-38,2810,7112,-324,2047,7505,-118,2629,7247,0,0,0,206,582,-258,669.1,4402.1,0.023,0.117,1.123,-1.390,-0.656,-3.221,599.0,1,0.1090,-0.2802,0.4825,-0.8227,208.8,-20.8,0.0
270679,2026-08-29_07-36-45.681-240,v3.5.9,3.51,12.0,400,988,2776,7383,-38,2810,7112,-324,2047,7505,-118,2629,7247,0,0,0,206,582,-258,669.1,4402.1,0.025,0.096,1.124,-1.519,-0.562,-3.038,599.0,1,0.1088,-0.2804,0.4820,-0.8229,208.8,-20.9,0.0
270706,2026-08-29_07-36-45.709-240,v3.5.9,3.51,12.0,400,947,2775,7406,-81,2821,7100,-365,2046,7522,-160,2641,7234,0,0,0,205,595,-288,692.1,4553.2,0.028,0.123,1.125,-2.778,-1.031,-3.249,618.3,1,0.1081,-0.2802,0.4829,-0.8225,208.7,-20.9,0.0
270736,2026-08-29_07-36-45.738-240,v3.5.9,3.51,12.0,400,947,2775,7406,-81,2821,7100,-365,2046,7522,-160,2641,7234,0,0,0,205,595,-288,692.1,4553.2,0.020,0.102,1.126,-3.056,-0.891,-3.793,618.3,1,0.1079,-0.2799,0.4843,-0.8219,208.7,-20.8,0.0
