time_ms,timestamp,version,voltage,audio_gain,cc,refX_raw,refY_raw,refZ_raw,tipX_raw,tipY_raw,tipZ_raw,refX_cal,refY_cal,refZ_cal,tipX_cal,tipY_cal,tipZ_cal,calOffsetX,calOffsetY,calOffsetZ,gradX,gradY,gradZ,mag,nT,accX,accY,accZ,gyrX,gyrY,gyrZ,freq,is_muted,QW,QX,QY,QZ,Azimuth,Elevation,Declination
150389,2026-08-29_06-24-04.391-240,v3.5.7,3.50,12.0,400,1089,2592,7325,1,2864,7304,-274,2238,7314,-129,2900,7301,0,0,0,145,662,-13,677.8,4459.3,0.027,0.158,1.118,-4.842,-0.953,-4.512,606.3,1,0.8930,0.0619,-0.1328,-0.4256,0.0,0.0,0.0
150432,2026-08-29_06-24-04.434-240,v3.5.7,3.50,12.0,400,1089,2592,7325,-4,2880,7304,-274,2238,7314,-134,2916,7301,0,0,0,140,678,-13,692.4,4555.4,0.035,0.115,1.114,-5.372,-0.750,-3.899,618.6,1,0.8956,0.0555,-0.1291,-0.4221,0.0,0.0,0.0
150475,2026-08-29_06-24-04.479-240,v3.5.7,3.50,12.0,400,1079,2599,7323,-4,2880,7304,-283,2245,7311,-134,2916,7301,0,0,0,149,671,-10,687.4,4522.5,0.027,0.085,1.116,-3.685,-0.766,-3.538,614.4,1,0.8979,0.0511,-0.1264,-0.4187,0.0,0.0,0.2
150506,2026-08-29_06-24-05.507-240,v3.5.7,3.50,12.0,400,1066,2601,7335,-20,2870,7307,-298,2247,7321,-150,2906,7304,0,0,0,148,659,-17,675.6,4444.9,0.039,0.105,1.116,0.269,-0.844,-3.096,604.5,1,0.8996,0.0513,-0.1256,-0.4151,0.0,0.0,0.2
150539,2026-08-29_06-24-05.541-240,v3.5.7,3.50,12.0,400,1066,2601,7335,-7,2868,7312,-298,2247,7321,-137,2904,7309,0,0,0,161,657,-12,676.5,4451.0,0.042,0.142,1.114,-2.377,-0.656,-3.679,605.2,1,0.9018,0.0483,-0.1236,-0.4113,0.0,0.0,0.2
150587,2026-08-29_06-24-05.588-240,v3.5.7,3.50,12.0,400,1056,2591,7335,-7,2868,7312,-308,2237,7319,-137,2904,7309,0,0,0,171,667,-10,688.6,4530.6,0.033,0.149,1.115,-1.770,-0.984,-3.254,615.4,1,0.9038,0.0462,-0.1216,-0.4078,0.0,0.0,0.2
150617,2026-08-29_06-24-05.619-240,v3.5.7,3.50,12.0,400,1052,2611,7342,-23,2880,7310,-313,2257,7325,-153,2916,7307,0,0,0,160,659,-18,678.4,4463.1,0.034,0.133,1.118,-4.094,-0.734,-4.059,606.8,1,0.9062,0.0412,-0.1187,-0.4038,0.0,0.0,0.2
150649,2026-08-29_06-24-05.650-240,v3.5.7,3.50,12.0,400,1069,2592,7423,-23,2880,7310,-310,2236,7407,-153,2916,7307,0,0,0,157,680,-100,705.0,4638.3,0.037,0.101,1.117,-3.429,-0.922,-3.595,629.1,1,0.9083,0.0372,-0.1159,-0.4001,0.0,0.0,0.2
150699,2026-08-29_06-24-05.701-240,v3.5.7,3.50,12.0,400,1069,2592,7423,-11,2855,7309,-310,2236,7407,-141,2891,7306,0,0,0,169,655,-101,683.9,4499.7,0.034,0.112,1.118,-0.019,-0.828,-3.002,611.4,1,0.9100,0.0370,-0.1148,-0.3967,0.0,0.0,0.0
150727,2026-08-29_06-24-05.729-240,v3.5.7,3.50,12.0,400,1063,2599,7352,-28,2869,7301,-304,2245,7337,-158,2905,7298,0,0,0,146,660,-39,677.1,4454.5,0.030,0.158,1.114,-2.211,-0.578,-3.829,605.7,1,0.9121,0.0342,-0.1130,-0.3926,0.0,0.0,0.0
150769,2026-08-29_06-24-05.771-240,v3.5.7,3.50,12.0,400,1068,2601,7331,-28,2869,7301,-296,2247,7317,-158,2905,7298,0,0,0,138,658,-19,672.6,4424.9,0.031,0.112,1.122,-4.594,-0.719,-3.987,601.9,1,0.9144,0.0287,-0.1099,-0.3887,0.0,0.0,0.0
150803,2026-08-29_06-24-05.805-240,v3.5.7,3.50,12.0,400,1068,2601,7331,-16,2875,7307,-296,2247,7317,-146,2911,7304,0,0,0,150,664,-13,680.9,4479.3,0.028,0.106,1.117,-3.170,-0.891,-3.835,608.9,1,0.9165,0.0249,-0.1072,-0.3847,0.0,0.0,0.0
150833,2026-08-29_06-24-05.834-240,v3.5.7,3.50,12.0,400,1067,2596,7332,-22,2875,7308,-297,2242,7318,-152,2911,7305,0,0,0,145,669,-13,684.7,4504.3,0.032,0.099,1.118,-1.885,-0.625,-3.296,612.0,1,0.9182,0.0225,-0.1055,-0.3811,0.0,0.0,0.2
150882,2026-08-29_06-24-05.884-240,v3.5.7,3.50,12.0,400,1057,2600,7342,-22,2875,7308,-308,2246,7326,-152,2911,7305,0,0,0,156,665,-21,683.4,4495.9,0.030,0.141,1.120,0.214,-0.922,-2.974,611.0,1,0.9198,0.0227,-0.1044,-0.3776,0.0,0.0,0.2
150913,2026-08-29_06-24-05.914-240,v3.5.7,3.50,12.0,400,1057,2600,7342,-25,2870,7299,-308,2246,7326,-155,2906,7296,0,0,0,153,660,-30,678.2,4461.6,0.030,0.146,1.113,-4.144,-0.953,-3.615,606.6,1,0.9217,0.0179,-0.1012,-0.3740,0.0,0.0,0.2
150964,2026-08-29_06-24-05.965-240,v3.5.7,3.50,12.0,400,1067,2600,7325,-26,2872,7306,-296,2246,7311,-156,2908,7303,0,0,0,140,662,-8,676.7,4451.9,0.030,0.118,1.117,-0.877,-0.656,-3.300,605.4,1,0.9234,0.0167,-0.0999,-0.3703,0.0,0.0,0.2
151002,2026-08-29_06-24-05.004-240,v3.5.7,3.50,12.0,400,1052,2602,7323,-26,2872,7306,-310,2249,7307,-156,2908,7303,0,0,0,154,659,-4,676.8,4452.4,0.031,0.109,1.118,-2.394,-0.875,-3.615,605.4,1,0.9252,0.0139,-0.0976,-0.3664,0.0,0.0,0.2
151049,2026-08-29_06-24-05.051-240,v3.5.7,3.50,12.0,400,1062,2593,7333,-21,2880,7314,-302,2239,7318,-151,2916,7311,0,0,0,151,677,-7,693.7,4563.6,0.029,0.136,1.115,-1.895,-0.469,-2.875,619.6,1,0.9267,0.0115,-0.0960,-0.3632,0.0,0.0,0.0
151077,2026-08-29_06-24-05.078-240,v3.5.7,3.50,12.0,400,1058,2599,7329,-14,2876,7321,-305,2246,7314,-144,2912,7318,0,0,0,161,666,4,685.2,4507.9,0.032,0.143,1.121,-4.045,-0.984,-4.069,612.5,1,0.9287,0.0068,-0.0928,-0.3590,0.0,0.0,0.2
151122,2026-08-29_06-24-05.124-240,v3.5.7,3.50,12.0,400,1058,2599,7329,-14,2876,7321,-305,2246,7314,-144,2912,7318,0,0,0,161,666,4,685.2,4507.9,0.029,0.108,1.117,-3.335,-1.016,-3.902,612.5,1,0.9306,0.0029,-0.0899,-0.3548,0.0,0.0,0.2
151149,2026-08-29_06-24-05.150-240,v3.5.7,3.50,12.0,400,1048,2603,7318,-37,2879,7280,-313,2250,7301,-167,2915,7278,0,0,0,146,665,-23,681.2,4481.8,0.031,0.116,1.118,-2.831,-0.906,-4.247,609.2,1,0.9326,-0.0005,-0.0874,-0.3502,0.0,0.0,0.2
151179,2026-08-29_06-24-05.182-240,v3.5.7,3.50,12.0,400,1054,2593,7370,-37,2879,7280,-316,2238,7353,-167,2915,7278,0,0,0,149,677,-75,697.2,4587.2,0.034,0.104,1.119,-2.194,-0.656,-3.893,622.6,1,0.9344,-0.0032,-0.0854,-0.3459,0.0,0.0,0.2
151222,2026-08-29_06-24-05.224-240,v3.5.7,3.50,12.0,400,1054,2593,7370,-24,2840,7312,-316,2238,7353,-154,2876,7309,0,0,0,162,638,-44,659.7,4340.2,0.028,0.141,1.119,-1.600,-1.172,-3.208,591.1,1,0.9359,-0.0048,-0.0831,-0.3423,0.0,0.0,0.2
151253,2026-08-29_06-24-05.255-240,v3.5.7,3.50,12.0,400,1059,2563,7363,28,2876,7307,-310,2208,7347,-101,2912,7304,0,0,0,209,704,-43,735.6,4839.6,0.031,0.112,1.115,-2.654,-0.859,-3.754,654.8,1,0.9376,-0.0079,-0.0807,-0.3382,0.0,0.0,0.2
151292,2026-08-29_06-24-05.294-240,v3.5.7,3.50,12.0,400,1054,2595,7331,28,2876,7307,-310,2241,7315,-101,2912,7304,0,0,0,209,671,-11,702.9,4624.2,0.035,0.125,1.117,-3.690,-0.453,-4.329,627.3,1,0.9394,-0.0124,-0.0783,-0.3334,0.0,0.0,0.2
151332,2026-08-29_06-24-05.334-240,v3.5.7,3.50,12.0,400,1054,2595,7331,-22,2871,7308,-310,2241,7315,-152,2907,7305,0,0,0,158,666,-10,684.6,4503.7,0.027,0.112,1.119,-2.882,-0.859,-3.460,612.0,1,0.9409,-0.0157,-0.0758,-0.3297,0.0,0.0,0.2
151359,2026-08-29_06-24-05.360-240,v3.5.7,3.50,12.0,400,1043,2599,7358,-35,2875,7308,-325,2245,7340,-166,2911,7305,0,0,0,159,666,-35,685.6,4510.6,0.024,0.106,1.119,-1.528,-0.922,-3.646,612.8,1,0.9425,-0.0174,-0.0738,-0.3255,0.0,0.0,0.2
151414,2026-08-29_06-24-05.415-240,v3.5.7,3.50,12.0,400,1048,2607,7333,-35,2875,7308,-316,2254,7316,-166,2911,7305,0,0,0,150,657,-11,674.0,4434.2,0.024,0.131,1.119,-1.639,-1.219,-3.402,603.1,1,0.9440,-0.0190,-0.0714,-0.3217,0.0,0.0,0.0
151441,2026-08-29_06-24-05.443-240,v3.5.7,3.50,12.0,400,1052,2625,7337,-21,2874,7319,-313,2272,7320,-151,2910,7316,0,0,0,162,638,-4,658.3,4330.6,0.026,0.151,1.118,-4.597,-1.219,-4.274,589.9,1,0.9457,-0.0242,-0.0678,-0.3171,0.0,0.0,0.2
151488,2026-08-29_06-24-06.489-240,v3.5.7,3.50,12.0,400,1052,2625,7337,-37,2877,7312,-313,2272,7320,-168,2913,7309,0,0,0,145,641,-11,657.3,4324.3,0.030,0.067,1.120,-0.906,-0.859,-3.194,589.1,1,0.9470,-0.0251,-0.0661,-0.3134,0.0,0.0,0.2
151528,2026-08-29_06-24-06.529-240,v3.5.7,3.50,12.0,400,1046,2595,7346,-37,2877,7312,-320,2241,7328,-168,2913,7309,0,0,0,152,672,-19,689.2,4534.5,0.031,0.141,1.117,-0.699,-0.797,-2.898,615.9,1,0.9482,-0.0257,-0.0646,-0.3100,0.0,0.0,0.2
151559,2026-08-29_06-24-06.561-240,v3.5.7,3.50,12.0,400,1073,2607,7342,-36,2856,7285,-293,2253,7329,-166,2892,7282,0,0,0,127,639,-47,653.2,4297.3,0.033,0.124,1.118,-2.895,-0.734,-3.795,585.6,1,0.9496,-0.0290,-0.0623,-0.3058,0.0,0.0,0.2
151593,2026-08-29_06-24-06.595-240,v3.5.7,3.50,12.0,400,1073,2607,7342,-33,2881,7316,-293,2253,7329,-164,2917,7313,0,0,0,129,664,-16,676.6,4451.3,0.036,0.112,1.115,-2.415,-0.750,-3.026,605.3,1,0.9508,-0.0317,-0.0602,-0.3024,0.0,0.0,0.2
151642,2026-08-29_06-24-06.643-240,v3.5.7,3.50,12.0,400,1059,2590,7341,-33,2881,7316,-306,2236,7326,-164,2917,7313,0,0,0,142,681,-13,695.8,4577.4,0.034,0.107,1.118,-1.209,-1.031,-3.344,621.4,1,0.9521,-0.0328,-0.0582,-0.2985,0.0,0.0,0.2
151683,2026-08-29_06-24-06.684-240,v3.5.7,3.50,12.0,400,1040,2609,7342,-11,2878,7300,-325,2256,7324,-141,2914,7297,0,0,0,184,658,-27,683.8,4498.5,0.025,0.109,1.115,0.906,-0.922,-3.212,611.3,1,0.9534,-0.0315,-0.0571,-0.2947,0.0,0.0,0.2
151711,2026-08-29_06-24-06.712-240,v3.5.7,3.50,12.0,400,1074,2598,7383,-15,2860,7308,-298,2243,7369,-145,2896,7305,0,0,0,153,653,-64,673.7,4432.4,0.026,0.159,1.120,-0.361,-0.469,-3.093,602.9,1,0.9545,-0.0317,-0.0562,-0.2910,0.0,0.0,0.2
151762,2026-08-29_06-24-06.764-240,v3.5.7,3.50,12.0,400,1074,2610,7348,-15,2860,7308,-293,2256,7334,-145,2896,7305,0,0,0,148,640,-29,657.5,4325.9,0.034,0.100,1.119,-3.555,-0.641,-3.595,589.3,1,0.9557,-0.0358,-0.0538,-0.2870,0.0,0.0,0.2
151805,2026-08-29_06-24-06.809-240,v3.5.7,3.50,12.0,400,1074,2610,7348,-53,2885,7311,-293,2256,7334,-184,2921,7308,0,0,0,109,665,-26,674.4,4436.7,0.036,0.101,1.116,-1.688,-0.906,-3.392,603.4,1,0.9569,-0.0376,-0.0518,-0.2831,0.0,0.0,0.2
151837,2026-08-29_06-24-06.839-240,v3.5.7,3.50,12.0,400,1056,2605,7339,-23,2875,7313,-309,2251,7323,-153,2911,7310,0,0,0,156,660,-13,678.3,4462.6,0.034,0.139,1.114,-2.541,-0.781,-3.495,606.7,1,0.9581,-0.0403,-0.0497,-0.2791,0.0,0.0,0.2
151883,2026-08-29_06-24-06.884-240,v3.5.7,3.50,12.0,400,1064,2601,7337,-23,2875,7313,-301,2247,7322,-153,2911,7310,0,0,0,148,664,-12,680.4,4476.3,0.028,0.100,1.121,-2.300,-0.750,-3.796,608.5,1,0.9594,-0.0429,-0.0476,-0.2748,0.0,0.0,0.2
151913,2026-08-29_06-24-06.914-240,v3.5.7,3.50,12.0,400,1064,2601,7337,-20,2860,7313,-301,2247,7322,-150,2896,7310,0,0,0,151,649,-12,666.4,4384.5,0.031,0.131,1.117,-2.448,-0.344,-3.584,596.8,1,0.9605,-0.0457,-0.0461,-0.2706,0.0,0.0,0.2
151963,2026-08-29_06-24-06.964-240,v3.5.7,3.50,12.0,400,1057,2606,7338,-30,2877,7269,-308,2252,7322,-160,2913,7267,0,0,0,148,661,-55,679.6,4471.0,0.026,0.111,1.120,-3.748,-0.906,-4.241,607.8,1,0.9618,-0.0499,-0.0433,-0.2658,0.0,0.0,0.2
151997,2026-08-29_06-24-06.998-240,v3.5.7,3.50,12.0,400,1061,2604,7349,-30,2877,7269,-306,2250,7334,-160,2913,7267,0,0,0,146,663,-67,682.2,4488.0,0.033,0.092,1.118,-2.278,-1.109,-3.195,610.0,1,0.9627,-0.0522,-0.0409,-0.2621,0.0,0.0,0.2
152029,2026-08-29_06-24-06.031-240,v3.5.7,3.50,12.0,400,1050,2598,7329,-34,2880,7320,-313,2245,7312,-165,2916,7317,0,0,0,148,671,5,687.1,4520.7,0.036,0.119,1.116,-0.763,-0.547,-3.258,614.1,1,0.9638,-0.0529,-0.0397,-0.2583,0.0,0.0,0.0
152068,2026-08-29_06-24-06.069-240,v3.5.7,3.50,12.0,400,1050,2598,7329,2,2880,7305,-313,2245,7312,-128,2916,7302,0,0,0,185,671,-10,696.1,4579.7,0.028,0.127,1.115,-1.515,-0.953,-3.437,621.7,1,0.9649,-0.0544,-0.0378,-0.2543,0.0,0.0,0.2
152113,2026-08-29_06-24-06.115-240,v3.5.7,3.50,12.0,400,1066,2600,7330,2,2880,7305,-297,2246,7316,-128,2916,7302,0,0,0,169,670,-14,691.1,4546.9,0.040,0.116,1.111,-5.113,-0.797,-4.355,617.5,1,0.9659,-0.0603,-0.0348,-0.2493,0.0,0.0,0.2
152141,2026-08-29_06-24-06.142-240,v3.5.7,3.50,12.0,400,1069,2610,7345,-24,2881,7305,-297,2256,7331,-154,2917,7302,0,0,0,143,661,-29,676.9,4453.4,0.042,0.102,1.114,-2.843,-0.484,-3.987,605.5,1,0.9670,-0.0635,-0.0329,-0.2447,0.0,0.0,0.2
152177,2026-08-29_06-24-06.179-240,v3.5.7,3.50,12.0,400,1069,2610,7345,-24,2881,7305,-297,2256,7331,-154,2917,7302,0,0,0,143,661,-29,676.9,4453.4,0.005,0.125,1.134,-3.219,-0.938,-3.951,605.5,1,0.9680,-0.0670,-0.0304,-0.2401,0.0,0.0,0.2
152205,2026-08-29_06-24-06.207-240,v3.5.7,3.50,12.0,400,1040,2601,7361,-37,2872,7298,-328,2247,7342,-167,2908,7295,0,0,0,161,661,-47,681.9,4486.5,0.026,0.108,1.119,-3.248,-0.531,-3.844,609.8,1,0.9689,-0.0707,-0.0284,-0.2356,0.0,0.0,0.2
152233,2026-08-29_06-24-06.234-240,v3.5.7,3.50,12.0,400,1043,2596,7387,-37,2872,7298,-330,2241,7368,-167,2908,7295,0,0,0,163,667,-73,690.5,4542.7,0.026,0.089,1.116,-1.307,-0.469,-3.702,616.9,1,0.9699,-0.0720,-0.0271,-0.2312,0.0,0.0,0.2
152277,2026-08-29_06-24-06.278-240,v3.5.7,3.50,12.0,400,1043,2596,7387,-38,2872,7296,-330,2241,7368,-168,2908,7293,0,0,0,162,667,-75,690.5,4542.6,0.036,0.124,1.118,-1.770,-1.156,-3.597,616.9,1,0.9708,-0.0737,-0.0248,-0.2270,0.0,0.0,0.2
152319,2026-08-29_06-24-06.321-240,v3.5.7,3.50,12.0,400,1042,2605,7363,-6,2872,7301,-327,2251,7344,-136,2908,7298,0,0,0,191,657,-46,685.7,4511.5,0.020,0.101,1.120,-2.572,-0.672,-3.892,613.0,1,0.9717,-0.0765,-0.0229,-0.2224,0.0,0.0,0.0
152349,2026-08-29_06-24-06.351-240,v3.5.7,3.50,12.0,400,1041,2604,7346,-6,2872,7301,-325,2250,7328,-136,2908,7298,0,0,0,189,658,-30,685.3,4508.3,0.024,0.116,1.118,-2.521,-1.062,-3.398,612.6,1,0.9724,-0.0791,-0.0205,-0.2185,0.0,0.0,0.2
152383,2026-08-29_06-24-06.384-240,v3.5.7,3.50,12.0,400,1041,2604,7346,-53,2880,7289,-325,2250,7328,-184,2916,7287,0,0,0,141,666,-41,682.0,4486.8,0.033,0.122,1.116,-2.903,-0.562,-3.935,609.8,1,0.9732,-0.0824,-0.0186,-0.2138,0.0,0.0,0.2
152413,2026-08-29_06-24-06.414-240,v3.5.7,3.50,12.0,400,1055,2600,7347,-40,2882,7308,-311,2246,7331,-171,2918,7305,0,0,0,140,672,-26,686.9,4519.2,0.036,0.103,1.116,-2.173,-0.500,-3.671,613.9,1,0.9740,-0.0847,-0.0170,-0.2095,0.0,0.0,0.2
152463,2026-08-29_06-24-06.464-240,v3.5.7,3.50,12.0,400,1037,2606,7336,-40,2882,7308,-327,2253,7317,-171,2918,7305,0,0,0,156,665,-12,683.2,4494.5,0.030,0.125,1.119,-2.690,-1.281,-3.535,610.8,1,0.9747,-0.0875,-0.0143,-0.2054,0.0,0.0,0.2
152493,2026-08-29_06-24-07.494-240,v3.5.7,3.50,12.0,400,1048,2595,7338,-38,2876,7315,-317,2241,7321,-169,2912,7312,0,0,0,148,671,-9,687.2,4521.0,0.038,0.112,1.118,-1.757,-0.891,-3.388,614.2,1,0.9754,-0.0892,-0.0124,-0.2014,0.0,0.0,0.2
152543,2026-08-29_06-24-07.544-240,v3.5.7,3.50,12.0,400,1048,2595,7338,-37,2880,7305,-317,2241,7321,-168,2916,7302,0,0,0,149,675,-19,691.5,4549.4,0.023,0.106,1.119,-3.536,-0.797,-3.281,617.8,1,0.9758,-0.0931,-0.0101,-0.1975,0.0,0.0,0.2
152581,2026-08-29_06-24-07.583-240,v3.5.7,3.50,12.0,400,1045,2609,7355,-37,2880,7305,-323,2255,7337,-168,2916,7302,0,0,0,155,661,-35,679.8,4472.6,0.039,0.116,1.117,-0.435,-0.500,-2.816,608.0,1,0.9765,-0.0933,-0.0090,-0.1941,0.0,0.0,0.2
152613,2026-08-29_06-24-07.614-240,v3.5.7,3.50,12.0,400,1033,2601,7344,-28,2860,7313,-333,2248,7325,-158,2896,7310,0,0,0,175,648,-15,671.4,4417.0,0.037,0.133,1.116,-1.635,-0.281,-3.332,600.9,1,0.9771,-0.0951,-0.0079,-0.1901,0.0,0.0,0.2
152647,2026-08-29_06-24-07.649-240,v3.5.7,3.50,12.0,400,1033,2601,7344,-33,2890,7316,-333,2248,7325,-164,2926,7313,0,0,0,169,678,-12,698.8,4597.7,0.026,0.099,1.118,-2.967,-1.062,-3.357,624.0,1,0.9776,-0.0982,-0.0055,-0.1862,0.0,0.0,0.2
152698,2026-08-29_06-24-07.699-240,v3.5.7,3.50,12.0,400,1043,2602,7324,-33,2890,7316,-319,2249,7306,-164,2926,7313,0,0,0,155,677,7,694.6,4569.4,0.032,0.118,1.116,-2.198,-0.672,-3.620,620.3,1,0.9782,-0.1005,-0.0037,-0.1819,0.0,0.0,0.2
152726,2026-08-29_06-24-07.729-240,v3.5.7,3.50,12.0,400,1023,2588,7341,-41,2863,7315,-342,2235,7320,-172,2899,7312,0,0,0,170,664,-8,685.5,4509.6,0.030,0.126,1.119,-2.173,-0.859,-3.545,612.7,1,0.9787,-0.1028,-0.0017,-0.1777,0.0,0.0,0.2
152757,2026-08-29_06-24-07.759-240,v3.5.7,3.50,12.0,400,1054,2593,7388,-41,2863,7315,-319,2238,7371,-172,2899,7312,0,0,0,147,661,-59,679.7,4471.8,0.027,0.105,1.119,-1.789,-0.766,-4.037,607.9,1,0.9794,-0.1046,0.0002,-0.1728,0.0,0.0,0.2
152808,2026-08-29_06-24-07.809-240,v3.5.7,3.50,12.0,400,1054,2593,7388,-18,2837,7287,-319,2238,7371,-148,2873,7284,0,0,0,171,635,-87,663.4,4364.2,0.032,0.127,1.118,-1.161,-0.516,-3.010,594.2,1,0.9799,-0.1056,0.0015,-0.1692,0.0,0.0,0.2
152856,2026-08-29_06-24-07.857-240,v3.5.7,3.50,12.0,400,1062,2592,7374,-49,2877,7313,-309,2237,7358,-180,2913,7310,0,0,0,129,676,-48,689.9,4538.6,0.035,0.125,1.117,-2.208,-0.906,-3.200,616.4,1,0.9803,-0.1079,0.0035,-0.1654,0.0,0.0,0.2
152885,2026-08-29_06-24-07.889-240,v3.5.7,3.50,12.0,400,1061,2603,7342,-19,2885,7309,-304,2249,7327,-149,2921,7306,0,0,0,155,672,-21,690.0,4539.2,0.006,0.136,1.131,-4.438,-0.641,-3.969,616.5,1,0.9805,-0.1129,0.0057,-0.1606,0.0,0.0,0.2
152929,2026-08-29_06-24-07.931-240,v3.5.7,3.50,12.0,400,1056,2595,7333,-19,2885,7309,-308,2241,7317,-149,2921,7306,0,0,0,159,680,-11,698.4,4594.9,0.031,0.088,1.118,-2.172,-1.312,-3.293,623.6,1,0.9809,-0.1151,0.0083,-0.1568,0.0,0.0,0.2
152964,2026-08-29_06-24-07.965-240,v3.5.7,3.50,12.0,400,1056,2595,7333,-25,2867,7300,-308,2241,7317,-155,2903,7297,0,0,0,153,662,-20,679.7,4472.0,0.032,0.124,1.117,-0.309,-0.516,-3.286,607.9,1,0.9815,-0.1151,0.0094,-0.1528,0.0,0.0,0.2
153009,2026-08-29_06-24-07.011-240,v3.5.7,3.50,12.0,400,1057,2608,7307,-26,2872,7303,-303,2255,7292,-156,2908,7300,0,0,0,147,653,8,669.4,4403.9,0.031,0.097,1.119,0.517,-0.797,-3.167,599.2,1,0.9822,-0.1140,0.0108,-0.1491,0.0,0.0,0.2
153049,2026-08-29_06-24-07.051-240,v3.5.7,3.50,12.0,400,1060,2609,7348,-26,2872,7303,-306,2255,7332,-156,2908,7300,0,0,0,150,653,-32,670.8,4413.0,0.035,0.181,1.112,-3.524,-0.891,-4.136,600.4,1,0.9824,-0.1178,0.0131,-0.1441,0.0,0.0,0.0
153076,2026-08-29_06-24-07.077-240,v3.5.7,3.50,12.0,400,1070,2580,7340,-8,2874,7313,-295,2226,7326,-138,2910,7310,0,0,0,157,684,-16,702.0,4618.2,0.034,0.088,1.116,-5.101,-1.078,-4.272,626.6,1,0.9824,-0.1236,0.0160,-0.1389,0.0,0.0,0.2
153119,2026-08-29_06-24-07.121-240,v3.5.7,3.50,12.0,400,1070,2580,7340,-18,2879,7312,-295,2226,7326,-148,2915,7309,0,0,0,147,689,-17,704.7,4636.3,0.029,0.136,1.121,0.259,3.875,-3.145,628.9,1,0.9831,-0.1236,0.0117,-0.1345,0.0,0.0,0.2
153169,2026-08-29_06-24-07.171-240,v3.5.7,3.50,12.0,400,1069,2593,7335,-18,2879,7312,-295,2239,7321,-148,2915,7309,0,0,0,147,676,-12,691.9,4552.0,0.031,0.136,1.114,-2.711,-0.625,-3.414,618.1,1,0.9833,-0.1266,0.0134,-0.1303,0.0,0.0,0.0
153199,2026-08-29_06-24-07.201-240,v3.5.7,3.50,12.0,400,1045,2599,7347,-19,2870,7310,-321,2245,7329,-149,2906,7307,0,0,0,172,661,-22,683.4,4495.8,0.030,0.133,1.121,-5.059,-0.906,-4.513,611.0,1,0.9832,-0.1323,0.0161,-0.1249,0.0,0.0,0.2
153225,2026-08-29_06-24-07.228-240,v3.5.7,3.50,12.0,400,1045,2599,7347,-19,2870,7310,-321,2245,7329,-149,2906,7307,0,0,0,172,661,-22,683.4,4495.8,0.027,0.084,1.120,-3.796,-0.891,-3.762,611.0,1,0.9831,-0.1365,0.0184,-0.1203,0.0,0.0,0.2
153255,2026-08-29_06-24-07.259-240,v3.5.7,3.50,12.0,400,1057,2593,7351,-25,2869,7329,-310,2239,7335,-155,2905,7326,0,0,0,155,666,-9,683.9,4499.1,0.029,0.102,1.120,-0.046,-0.922,-3.329,611.4,1,0.9836,-0.1361,0.0201,-0.1164,0.0,0.0,0.2
153285,2026-08-29_06-24-07.287-240,v3.5.7,3.50,12.0,400,1060,2624,7360,-25,2869,7329,-309,2270,7344,-155,2905,7326,0,0,0,154,635,-18,653.7,4300.4,0.025,0.125,1.117,-0.287,-0.734,-2.685,586.0,1,0.9840,-0.1361,0.0215,-0.1132,0.0,0.0,0.2
153333,2026-08-29_06-24-07.334-240,v3.5.7,3.50,12.0,400,1060,2624,7360,20,2857,7307,-309,2270,7344,-109,2893,7304,0,0,0,200,623,-40,655.5,4312.7,0.034,0.107,1.118,6.115,-0.453,-5.190,587.6,1,0.9857,-0.1281,0.0221,-0.1071,0.0,0.0,0.2
153362,2026-08-29_06-24-07.363-240,v3.5.7,3.50,12.0,400,1086,2605,7334,18,2870,7320,-278,2251,7323,-112,2906,7317,0,0,0,166,655,-6,675.7,4445.6,0.031,0.180,1.116,2.587,-0.734,-2.612,604.6,1,0.9865,-0.1245,0.0230,-0.1041,0.0,0.0,0.2
153402,2026-08-29_06-24-07.404-240,v3.5.7,3.50,12.0,400,1130,2605,7334,18,2870,7320,-235,2250,7329,-112,2906,7317,0,0,0,123,656,-12,667.5,4391.7,0.030,0.188,1.114,-10.933,-1.016,-4.405,597.7,1,0.9852,-0.1375,0.0264,-0.0985,0.0,0.0,0.2
153434,2026-08-29_06-24-07.435-240,v3.5.7,3.50,12.0,400,1130,2605,7334,23,2871,7304,-235,2250,7329,-106,2907,7301,0,0,0,129,657,-28,670.1,4408.7,0.032,0.016,1.120,-6.601,-1.203,-4.777,599.8,1,0.9846,-0.1450,0.0295,-0.0926,0.0,0.0,0.2
153463,2026-08-29_06-24-07.464-240,v3.5.7,3.50,12.0,400,1069,2599,7330,23,2871,7304,-294,2245,7316,-106,2907,7301,0,0,0,188,662,-15,688.3,4528.6,0.031,0.091,1.118,0.071,-0.828,-3.721,615.1,1,0.9851,-0.1445,0.0312,-0.0882,0.0,0.0,0.2
153492,2026-08-29_06-24-08.494-240,v3.5.7,3.50,12.0,400,1072,2599,7330,-17,2883,7303,-292,2245,7317,-147,2919,7300,0,0,0,145,674,-17,689.6,4537.0,0.032,0.121,1.120,1.358,-0.562,-2.679,616.2,1,0.9856,-0.1424,0.0322,-0.0851,0.0,0.0,0.2
153543,2026-08-29_06-24-08.544-240,v3.5.7,3.50,12.0,400,1072,2599,7330,32,2881,7307,-292,2245,7317,-97,2917,7304,0,0,0,195,672,-13,699.8,4604.2,0.031,0.153,1.119,-0.559,-1.156,-3.250,624.8,1,0.9858,-0.1426,0.0343,-0.0813,0.0,0.0,0.2
153572,2026-08-29_06-24-08.574-240,v3.5.7,3.50,12.0,400,1092,2605,7337,32,2881,7307,-273,2251,7326,-97,2917,7304,0,0,0,176,666,-22,689.2,4534.3,0.032,0.143,1.118,-3.143,-1.000,-3.850,615.9,1,0.9856,-0.1460,0.0365,-0.0766,0.0,0.0,0.0
153619,2026-08-29_06-24-08.621-240,v3.5.7,3.50,12.0,400,1089,2600,7332,8,2882,7300,-275,2246,7321,-122,2918,7297,0,0,0,153,672,-24,689.6,4536.9,0.031,0.110,1.118,-4.567,-0.828,-4.129,616.2,1,0.9852,-0.1511,0.0387,-0.0714,0.0,0.0,0.0
153645,2026-08-29_06-24-08.647-240,v3.5.7,3.50,12.0,400,1089,2600,7332,-4,2880,7307,-275,2246,7321,-134,2916,7304,0,0,0,141,670,-17,684.9,4505.8,0.026,0.101,1.118,-3.049,-0.859,-3.562,612.2,1,0.9849,-0.1544,0.0407,-0.0671,0.0,0.0,0.2
153695,2026-08-29_06-24-08.698-240,v3.5.7,3.50,12.0,400,1084,2597,7336,-4,2880,7307,-281,2243,7324,-134,2916,7304,0,0,0,147,673,-20,689.2,4533.9,0.038,0.111,1.123,-3.074,-0.625,-3.169,615.8,1,0.9846,-0.1577,0.0423,-0.0632,0.0,0.0,0.2
153722,2026-08-29_06-24-08.723-240,v3.5.7,3.50,12.0,400,1054,2602,7335,-4,2873,7342,-310,2248,7319,-134,2909,7339,0,0,0,176,661,20,684.3,4502.1,0.034,0.121,1.118,-1.060,-0.438,-2.961,611.8,1,0.9846,-0.1586,0.0435,-0.0596,0.0,0.0,0.2
153755,2026-08-29_06-24-08.759-240,v3.5.7,3.50,12.0,400,1054,2602,7335,-4,2873,7342,-310,2248,7319,-134,2909,7339,0,0,0,176,661,20,684.3,4502.1,0.025,0.162,1.117,-4.349,-0.781,-4.002,611.8,1,0.9840,-0.1634,0.0456,-0.0546,0.0,0.0,0.2
153786,2026-08-29_06-24-08.787-240,v3.5.7,3.50,12.0,400,1070,2594,7328,-16,2875,7301,-293,2240,7314,-146,2911,7298,0,0,0,147,671,-16,687.1,4520.4,0.026,0.110,1.120,-5.269,-1.125,-4.283,614.1,1,0.9832,-0.1693,0.0482,-0.0493,0.0,0.0,0.2
153815,2026-08-29_06-24-08.819-240,v3.5.7,3.50,12.0,400,1066,2589,7377,-29,2871,7320,-305,2234,7362,-159,2907,7317,0,0,0,146,673,-45,690.1,4540.3,0.027,0.099,1.118,-3.299,-1.578,-4.338,616.6,1,0.9826,-0.1728,0.0512,-0.0441,0.0,0.0,0.2
153864,2026-08-29_06-24-08.865-240,v3.5.7,3.50,12.0,400,1065,2600,7315,-29,2871,7320,-296,2247,7301,-159,2907,7317,0,0,0,137,660,16,674.3,4435.9,0.035,0.140,1.121,-1.026,-0.828,-3.684,603.3,1,0.9826,-0.1735,0.0531,-0.0397,0.0,0.0,0.2
153911,2026-08-29_06-24-08.912-240,v3.5.7,3.50,12.0,400,1065,2600,7315,11,2879,7310,-296,2247,7301,-119,2915,7307,0,0,0,177,668,6,691.1,4546.6,0.035,0.120,1.117,-2.581,-0.656,-3.471,617.4,1,0.9822,-0.1762,0.0548,-0.0354,0.0,0.0,0.2
153939,2026-08-29_06-24-08.941-240,v3.5.7,3.50,12.0,400,1068,2602,7345,-11,2883,7304,-298,2248,7331,-141,2919,7301,0,0,0,157,671,-30,689.8,4538.0,0.032,0.125,1.116,-2.304,-0.734,-4.209,616.3,1,0.9818,-0.1785,0.0567,-0.0303,0.0,0.0,0.0
153982,2026-08-29_06-24-08.984-240,v3.5.7,3.50,12.0,400,1068,2601,7344,-11,2883,7304,-298,2247,7330,-141,2919,7301,0,0,0,157,672,-29,690.7,4544.1,0.030,0.107,1.116,-4.962,-1.312,-3.720,617.1,1,0.9808,-0.1840,0.0593,-0.0256,0.0,0.0,0.2
154018,2026-08-29_06-24-08.019-240,v3.5.7,3.50,12.0,400,1068,2601,7344,-20,2877,7294,-298,2247,7330,-150,2913,7291,0,0,0,148,666,-39,683.4,4495.8,0.036,0.124,1.118,-2.509,-1.391,-3.315,611.0,1,0.9803,-0.1866,0.0618,-0.0217,0.0,0.0,0.2
154048,2026-08-29_06-24-08.049-240,v3.5.7,3.50,12.0,400,1054,2602,7323,-20,2877,7294,-308,2249,7307,-150,2913,7291,0,0,0,158,664,-16,682.7,4491.6,0.006,0.087,1.134,-1.440,-0.750,-3.463,610.4,1,0.9800,-0.1878,0.0636,-0.0176,0.0,0.0,0.2
154100,2026-08-29_06-24-08.104-240,v3.5.7,3.50,12.0,400,1059,2601,7344,-18,2878,7302,-307,2247,7328,-148,2914,7299,0,0,0,159,667,-29,686.3,4515.1,0.029,0.167,1.118,-4.786,-0.984,-4.039,613.4,1,0.9789,-0.1931,0.0658,-0.0125,0.0,0.0,0.2
154129,2026-08-29_06-24-08.130-240,v3.5.7,3.50,12.0,400,1053,2602,7343,3,2891,7305,-313,2248,7327,-127,2927,7302,0,0,0,186,679,-25,704.5,4634.6,0.032,0.086,1.116,-4.707,-0.531,-4.121,628.7,1,0.9778,-0.1983,0.0675,-0.0072,0.0,0.0,0.2
154173,2026-08-29_06-24-08.174-240,v3.5.7,3.50,12.0,400,1053,2602,7343,-37,2868,7314,-313,2248,7327,-168,2904,7311,0,0,0,145,656,-16,672.0,4421.2,0.028,0.134,1.116,-2.380,-0.812,-3.840,601.4,1,0.9772,-0.2006,0.0695,-0.0025,0.0,0.0,0.2
154217,2026-08-29_06-24-08.219-240,v3.5.7,3.50,12.0,400,1054,2601,7333,-37,2868,7314,-310,2247,7317,-168,2904,7311,0,0,0,142,657,-6,672.2,4422.3,0.030,0.109,1.117,-2.195,-0.984,-3.333,601.6,1,0.9766,-0.2028,0.0715,0.0015,0.0,0.0,0.2
154264,2026-08-29_06-24-08.267-240,v3.5.7,3.50,12.0,400,1037,2577,7330,-35,2876,7309,-326,2224,7312,-166,2912,7306,0,0,0,160,688,-6,706.4,4647.3,0.026,0.121,1.120,-7.738,-1.047,-4.590,630.3,1,0.9745,-0.2116,0.0739,0.0075,0.0,0.0,0.2
154293,2026-08-29_06-24-08.294-240,v3.5.7,3.50,12.0,400,1025,2602,7345,-61,2887,7311,-341,2249,7324,-192,2923,7308,0,0,0,149,674,-16,690.5,4542.5,0.032,0.039,1.118,-1.468,-0.859,-4.042,616.9,1,0.9741,-0.2128,0.0760,0.0123,0.0,0.0,0.0
154338,2026-08-29_06-24-08.339-240,v3.5.7,3.48,12.0,400,1040,2595,7364,-61,2887,7311,-329,2241,7345,-192,2923,7308,0,0,0,137,682,-37,696.6,4582.9,0.033,0.125,1.117,-1.238,-0.609,-3.020,622.1,1,0.9737,-0.2138,0.0775,0.0159,0.0,0.0,0.2
154383,2026-08-29_06-24-08.384-240,v3.5.7,3.48,12.0,400,1040,2595,7364,-61,2874,7316,-329,2241,7345,-192,2911,7313,0,0,0,137,670,-32,684.6,4504.0,0.027,0.170,1.112,-6.276,-0.891,-4.370,612.0,1,0.9718,-0.2208,0.0796,0.0216,0.0,0.0,0.2
154413,2026-08-29_06-24-08.414-240,v3.5.7,3.48,12.0,400,1030,2591,7368,-25,2882,7308,-339,2237,7348,-155,2918,7305,0,0,0,184,681,-43,706.7,4649.5,0.032,0.216,1.108,-12.614,-1.422,-5.816,630.6,1,0.9680,-0.2353,0.0826,0.0295,0.0,0.0,0.2
154453,2026-08-29_06-24-08.454-240,v3.5.7,3.48,12.0,400,983,2601,7362,-25,2882,7308,-385,2248,7335,-155,2918,7305,0,0,0,230,670,-30,709.0,4664.6,0.025,0.042,1.123,-15.296,-1.109,-7.118,632.5,1,0.9629,-0.2528,0.0854,0.0393,0.0,0.0,0.2
154491,2026-08-29_06-24-09.493-240,v3.5.7,3.48,12.0,400,983,2601,7362,-122,2874,7303,-385,2248,7335,-254,2911,7301,0,0,0,131,663,-34,676.7,4451.8,0.021,-0.015,1.123,-3.341,-1.344,-4.224,605.3,1,0.9616,-0.2563,0.0882,0.0443,0.0,0.0,0.0
154519,2026-08-29_06-24-09.521-240,v3.5.7,3.48,12.0,400,912,2603,7352,-154,2880,7292,-454,2251,7314,-286,2917,7290,0,0,0,168,666,-24,687.3,4521.6,0.024,0.061,1.122,4.571,-1.328,-1.989,614.2,1,0.9628,-0.2504,0.0907,0.0457,0.0,0.0,0.2
154567,2026-08-29_06-24-09.569-240,v3.5.7,3.48,12.0,400,936,2597,7355,-154,2880,7292,-431,2245,7321,-286,2917,7290,0,0,0,145,672,-31,688.2,4527.4,0.027,0.125,1.115,1.175,-0.516,-2.591,615.0,1,0.9630,-0.2485,0.0921,0.0485,0.0,0.0,0.2
154598,2026-08-29_06-24-09.600-240,v3.5.7,3.48,12.0,400,936,2597,7355,-135,2874,7307,-431,2245,7321,-267,2911,7305,0,0,0,164,666,-16,686.1,4513.7,0.032,0.139,1.114,-2.912,-1.203,-3.262,613.2,1,0.9618,-0.2515,0.0944,0.0524,0.0,0.0,0.0
154627,2026-08-29_06-24-09.628-240,v3.5.7,3.48,12.0,400,959,2606,7348,-135,2874,7307,-407,2254,7317,-267,2911,7305,0,0,0,140,657,-12,671.9,4420.1,0.029,0.031,1.119,0.466,-0.906,-3.318,601.3,1,0.9617,-0.2504,0.0966,0.0560,0.0,0.0,0.2
154655,2026-08-29_06-24-09.659-240,v3.5.7,3.48,12.0,400,970,2605,7359,-133,2869,7323,-398,2252,7330,-265,2906,7321,0,0,0,133,654,-9,667.4,4391.1,0.027,0.160,1.120,1.178,-1.156,-2.647,597.6,1,0.9618,-0.2485,0.0989,0.0587,0.0,0.0,0.2
154699,2026-08-29_06-24-09.701-240,v3.5.7,3.48,12.0,400,970,2605,7359,-110,2878,7303,-398,2252,7330,-242,2915,7301,0,0,0,156,663,-29,681.7,4485.0,0.038,0.093,1.119,-5.952,-0.938,-3.997,609.6,1,0.9595,-0.2550,0.1008,0.0639,0.0,0.0,0.2
154743,2026-08-29_06-24-09.744-240,v3.5.7,3.48,12.0,400,969,2592,7323,-110,2878,7303,-392,2240,7295,-242,2915,7301,0,0,0,150,675,6,691.5,4549.3,0.029,0.112,1.121,-1.697,-0.453,-3.657,617.8,1,0.9587,-0.2564,0.1023,0.0683,0.0,0.0,0.2
154771,2026-08-29_06-24-09.773-240,v3.5.7,3.48,12.0,400,969,2599,7347,-120,2883,7298,-396,2246,7318,-252,2920,7296,0,0,0,144,674,-22,689.6,4536.6,0.028,0.051,1.127,-2.981,-0.719,-3.006,616.2,1,0.9574,-0.2594,0.1039,0.0721,0.0,0.0,0.0
154810,2026-08-29_06-24-09.814-240,v3.5.7,3.48,12.0,400,969,2599,7347,-115,2892,7309,-396,2246,7318,-247,2929,7307,0,0,0,149,683,-11,699.2,4599.7,0.033,0.148,1.117,-0.372,-0.734,-3.394,624.2,1,0.9570,-0.2593,0.1058,0.0759,0.0,0.0,0.2
154860,2026-08-29_06-24-09.861-240,v3.5.7,3.48,12.0,400,948,2592,7342,-115,2892,7309,-416,2240,7310,-247,2929,7307,0,0,0,169,689,-3,709.4,4667.3,0.033,0.100,1.118,-2.135,-0.906,-3.386,632.8,1,0.9559,-0.2613,0.1078,0.0799,0.0,0.0,0.2
154889,2026-08-29_06-24-09.891-240,v3.5.7,3.48,12.0,400,965,2591,7344,-119,2877,7291,-400,2239,7314,-251,2914,7289,0,0,0,149,675,-25,691.7,4550.7,0.030,0.121,1.113,-2.635,-1.047,-3.783,618.0,1,0.9546,-0.2638,0.1100,0.0844,0.0,0.0,0.0
154936,2026-08-29_06-24-09.938-240,v3.5.7,3.48,12.0,400,967,2592,7370,-130,2872,7318,-402,2239,7340,-262,2909,7316,0,0,0,140,670,-24,684.9,4505.9,0.023,0.103,1.115,-5.155,-0.859,-2.022,612.2,1,0.9526,-0.2695,0.1111,0.0873,0.0,0.0,0.2
154982,2026-08-29_06-24-09.984-240,v3.5.7,3.48,12.0,400,966,2599,7354,-130,2872,7318,-401,2246,7324,-262,2909,7316,0,0,0,139,663,-8,677.5,4457.0,0.036,0.119,1.110,-6.084,-1.016,-4.444,606.0,1,0.9499,-0.2761,0.1131,0.0930,0.0,0.0,0.2
155015,2026-08-29_06-24-09.019-240,v3.5.7,3.48,12.0,400,966,2599,7354,-128,2876,7303,-401,2246,7324,-260,2913,7301,0,0,0,141,667,-23,682.1,4487.7,0.029,0.059,1.139,-3.564,-0.547,-2.922,609.9,1,0.9483,-0.2797,0.1144,0.0968,0.0,0.0,0.2
155049,2026-08-29_06-24-09.051-240,v3.5.7,3.48,12.0,400,924,2602,7352,-130,2877,7312,-442,2250,7316,-262,2914,7310,0,0,0,180,664,-6,688.0,4526.3,0.033,0.081,1.117,1.012,-0.984,-3.778,614.8,1,0.9481,-0.2779,0.1169,0.1008,0.0,0.0,0.0
155093,2026-08-29_06-24-09.094-240,v3.5.7,3.48,12.0,400,956,2597,7351,-130,2877,7312,-410,2245,7320,-262,2914,7310,0,0,0,148,669,-10,685.2,4508.2,0.019,0.135,1.113,0.106,-0.844,-3.723,612.5,1,0.9476,-0.2771,0.1192,0.1048,0.0,0.0,0.2
155123,2026-08-29_06-24-09.124-240,v3.5.7,3.48,12.0,400,956,2597,7351,-122,2878,7305,-410,2245,7320,-254,2915,7303,0,0,0,156,670,-17,688.1,4527.2,0.024,0.113,1.133,-0.195,-1.641,-4.650,615.0,1,0.9467,-0.2767,0.1227,0.1098,0.0,0.0,0.2
155152,2026-08-29_06-24-09.154-240,v3.5.7,3.48,12.0,400,977,2610,7356,-122,2878,7305,-390,2257,7328,-254,2915,7303,0,0,0,136,658,-25,672.4,4423.5,0.019,-0.012,1.107,6.729,-0.141,-4.408,601.7,1,0.9485,-0.2678,0.1253,0.1139,0.0,0.0,0.0
155182,2026-08-29_06-24-09.184-240,v3.5.7,3.48,12.0,400,1026,2601,7343,-106,2876,7304,-339,2248,7323,-238,2913,7302,0,0,0,101,665,-21,673.0,4427.3,0.050,0.122,1.155,22.070,3.688,0.789,602.2,1,0.9562,-0.2410,0.1238,0.1107,0.0,0.0,0.2
155232,2026-08-29_06-24-09.234-240,v3.5.7,3.48,12.0,400,1026,2601,7343,3,2866,7307,-339,2248,7323,-127,2902,7304,0,0,0,212,654,-19,687.8,4524.8,0.100,0.171,1.149,-2.791,-2.016,-7.428,614.7,1,0.9541,-0.2432,0.1280,0.1193,0.0,0.0,0.2
155271,2026-08-29_06-24-09.273-240,v3.5.7,3.48,12.0,400,1137,2609,7316,3,2866,7307,-225,2255,7313,-127,2902,7304,0,0,0,98,647,-9,654.4,4305.5,-0.011,0.090,1.127,-4.864,-4.547,-13.394,586.7,1,0.9497,-0.2473,0.1367,0.1347,0.0,0.0,0.2
155300,2026-08-29_06-24-09.304-240,v3.5.7,3.48,12.0,400,1092,2594,7328,-50,2831,7296,-271,2240,7318,-180,2868,7293,0,0,0,91,628,-25,635.1,4178.0,-0.070,0.045,1.150,-0.881,-6.234,-15.026,570.4,1,0.9457,-0.2466,0.1485,0.1507,0.0,0.0,0.2
155338,2026-08-29_06-24-09.339-240,v3.5.7,3.48,12.0,400,1077,2581,7316,-68,2753,7270,-284,2227,7304,-198,2790,7267,0,0,0,86,563,-37,570.7,3754.8,0.056,0.133,1.133,4.355,-9.547,-19.925,516.4,1,0.9413,-0.2392,0.1667,0.1704,0.0,0.0,0.2
155389,2026-08-29_06-24-09.391-240,v3.5.7,3.48,12.0,400,1077,2581,7316,-68,2753,7270,-284,2227,7304,-198,2790,7267,0,0,0,86,563,-37,570.7,3754.8,0.013,0.152,1.123,-7.296,-12.797,-29.418,516.4,1,0.9294,-0.2440,0.1888,0.2025,0.0,0.0,0.0
155418,2026-08-29_06-24-09.419-240,v3.5.7,3.48,12.0,400,1053,2524,7351,-30,2596,7260,-313,2170,7335,-158,2633,7256,0,0,0,155,463,-79,494.6,3254.0,-0.066,0.052,1.136,-3.977,-12.297,-33.951,452.5,1,0.9158,-0.2433,0.2121,0.2389,0.0,0.0,0.2
155448,2026-08-29_06-24-09.449-240,v3.5.7,3.48,12.0,400,998,2448,7335,-30,2596,7260,-365,2094,7312,-158,2633,7256,0,0,0,207,539,-56,580.1,3816.4,0.007,-0.031,1.194,12.160,-13.156,-36.375,524.3,1,0.9041,-0.2232,0.2415,0.2729,0.0,0.0,0.2
155491,2026-08-29_06-24-10.492-240,v3.5.7,3.48,12.0,400,998,2448,7335,-80,2482,7313,-365,2094,7312,-208,2521,7309,0,0,0,157,427,-3,455.0,2993.1,0.291,0.298,1.133,9.096,-24.516,-45.901,419.3,1,0.8817,-0.2067,0.2845,0.3145,0.0,0.0,0.2
155519,2026-08-29_06-24-10.521-240,v3.5.7,3.48,12.0,400,1030,2333,7363,-62,2344,7381,-337,1977,7345,-190,2383,7375,0,0,0,147,406,30,432.8,2847.6,-0.021,0.141,1.156,-5.564,-24.531,-59.918,400.7,1,0.8453,-0.2004,0.3237,0.3750,0.0,0.0,0.2
155566,2026-08-29_06-24-10.568-240,v3.5.7,3.48,12.0,400,978,2173,7393,-62,2344,7381,-393,1816,7367,-190,2383,7375,0,0,0,203,567,8,602.3,3962.5,0.270,0.191,1.285,-6.119,-22.703,-75.348,542.9,1,0.7954,-0.1859,0.3618,0.4492,0.0,0.0,0.2
155623,2026-08-29_06-24-10.624-240,v3.5.7,3.48,12.0,400,884,1999,7449,-160,2139,7440,-495,1641,7409,-288,2180,7434,0,0,0,207,539,25,577.9,3802.1,0.165,-0.016,1.268,-13.838,-21.266,-87.905,522.5,1,0.7286,-0.1706,0.3930,0.5344,0.0,0.0,0.2
155652,2026-08-29_06-24-10.654-240,v3.5.7,3.48,12.0,400,884,1999,7449,-336,1940,7497,-495,1641,7409,-466,1984,7491,0,0,0,29,343,82,353.9,2328.0,0.075,0.041,1.230,1.345,-19.984,-88.858,334.4,1,0.6555,-0.1381,0.4281,0.6065,0.0,0.0,0.0
155683,2026-08-29_06-24-10.685-240,v3.5.7,3.48,12.0,400,737,1809,7502,-336,1940,7497,-649,1451,7440,-466,1984,7491,0,0,0,183,533,51,565.8,3722.7,0.000,-0.003,1.153,18.846,-27.109,-90.483,512.3,1,0.5716,-0.0940,0.4767,0.6612,0.0,0.0,0.2
155710,2026-08-29_06-24-10.712-240,v3.5.7,3.48,12.0,400,755,1590,7546,-416,1702,7587,-637,1229,7488,-546,1748,7579,0,0,0,91,519,91,534.7,3517.9,0.064,0.109,1.115,31.293,-30.781,-93.393,486.2,1,0.4759,-0.0410,0.5311,0.6999,0.0,0.0,0.2
155755,2026-08-29_06-24-10.759-240,v3.5.7,3.48,12.0,400,755,1590,7546,-304,1409,7683,-637,1229,7488,-431,1456,7672,0,0,0,206,227,184,357.5,2352.1,0.257,0.447,0.802,28.729,-33.453,-100.771,337.5,1,0.3636,0.0137,0.5757,0.7322,0.0,0.0,0.2
155795,2026-08-29_06-24-10.797-240,v3.5.7,3.48,12.0,400,933,1328,7577,-304,1409,7683,-464,962,7546,-431,1456,7672,0,0,0,33,494,126,510.9,3361.1,0.100,0.376,1.066,9.401,-35.281,-110.217,466.2,1,0.2348,0.0644,0.5922,0.7681,0.0,0.0,0.0
155825,2026-08-29_06-24-10.829-240,v3.5.7,3.48,12.0,400,1029,1084,7597,-164,1092,7700,-371,715,7582,-286,1140,7686,0,0,0,85,425,104,445.7,2932.4,0.247,0.171,1.103,4.689,-32.375,-110.004,411.5,1,0.1038,0.1150,0.5912,0.7915,0.0,0.0,0.2
155858,2026-08-29_06-24-10.859-240,v3.5.7,3.48,12.0,400,1029,1084,7597,-164,1092,7700,-371,715,7582,-286,1140,7686,0,0,0,85,425,104,445.7,2932.4,0.245,0.306,0.737,-6.674,-35.359,-103.841,411.5,1,-0.0238,0.1544,0.5688,0.8075,0.0,0.0,0.0
155889,2026-08-29_06-24-10.891-240,v3.5.7,3.48,12.0,400,1034,845,7614,-176,839,7738,-368,474,7601,-297,888,7723,0,0,0,71,414,122,437.4,2877.6,0.196,0.454,0.988,-30.420,-28.688,-117.158,404.5,1,-0.1547,0.2072,0.5084,0.8214,0.0,0.0,0.0
155918,2026-08-29_06-24-10.920-240,v3.5.7,3.48,12.0,400,865,629,7631,-176,839,7738,-538,258,7594,-297,888,7723,0,0,0,241,630,129,686.7,4518.1,0.226,0.191,1.042,-25.309,-19.406,-127.398,613.8,1,-0.2875,0.2695,0.4397,0.8071,0.0,0.0,0.2
155973,2026-08-29_06-24-10.975-240,v3.5.7,3.48,12.0,400,771,441,7645,-307,565,7756,-632,70,7595,-428,616,7741,0,0,0,204,546,146,600.9,3953.1,0.007,0.522,1.123,-39.628,-12.359,-127.701,541.7,1,-0.4041,0.3367,0.3473,0.7764,0.0,0.0,0.2
156018,2026-08-29_06-24-10.019-240,v3.5.7,3.48,12.0,400,771,441,7645,-509,391,7779,-632,70,7595,-633,445,7764,0,0,0,-1,375,169,411.3,2706.1,0.406,0.705,1.683,-132.143,-5.359,-134.097,382.6,1,-0.4681,0.4442,0.1555,0.7479,0.0,0.0,0.2
156049,2026-08-29_06-24-10.051-240,v3.5.7,3.48,12.0,400,368,355,7688,-1058,294,7692,-1039,-10,7577,-1189,352,7682,0,0,0,-150,362,105,405.7,2668.9,0.425,0.320,1.169,-154.998,12.734,-133.964,377.9,1,-0.4890,0.5548,-0.0547,0.6709,0.0,0.0,0.0
156202,2026-08-29_06-24-10.203-240,v3.5.7,3.48,12.0,400,-2116,45,7365,-3007,98,7067,-3447,-273,6894,-3164,169,7079,0,0,0,283,442,185,556.5,3661.1,-0.026,-0.731,0.963,55.931,10.547,-96.594,504.5,1,-0.6037,0.5177,-0.0678,0.6025,0.0,0.0,0.2
156232,2026-08-29_06-24-10.234-240,v3.5.7,3.48,12.0,400,-2116,45,7365,-3274,-69,7004,-3447,-273,6894,-3433,4,7018,0,0,0,14,277,124,303.8,1998.8,0.075,-0.083,1.034,101.255,2.297,-78.216,292.4,1,-0.7192,0.4307,-0.0400,0.5437,0.0,0.0,0.2
156267,2026-08-29_06-24-10.268-240,v3.5.7,3.48,12.0,400,-1872,-120,7459,-3274,-69,7004,-3220,-446,7023,-3433,4,7018,0,0,0,-213,450,-5,497.9,3275.6,0.090,0.340,1.065,62.573,-4.656,-77.714,455.3,1,-0.7993,0.3644,-0.0432,0.4758,0.0,-nan,0.2
156293,2026-08-29_06-24-10.294-240,v3.5.7,3.48,12.0,400,-1301,-323,7563,-2671,-310,7256,-2670,-662,7211,-2821,-238,7261,0,0,0,-151,424,50,452.9,2979.3,0.096,0.341,1.086,50.540,-8.109,-78.182,417.5,1,-0.8626,0.3026,-0.0565,0.4014,0.0,-nan,0.2
156345,2026-08-29_06-24-10.348-240,v3.5.7,3.48,12.0,400,-915,-486,7600,-2213,-527,7407,-2292,-833,7306,-2355,-457,7406,0,0,0,-63,376,100,394.1,2593.0,0.150,0.607,1.183,-3.432,-2.797,-80.850,368.2,1,-0.8972,0.2975,-0.0913,0.3135,0.0,-nan,0.2
156392,2026-08-29_06-24-10.394-240,v3.5.7,3.48,12.0,400,-915,-486,7600,-2125,-683,7382,-2292,-833,7306,-2264,-613,7380,0,0,0,28,220,74,233.8,1538.1,0.170,0.282,1.008,-61.397,1.703,-84.749,233.7,1,-0.9001,0.3541,-0.1438,0.2090,0.0,-nan,0.2
156440,2026-08-29_06-24-10.441-240,v3.5.7,3.48,12.0,400,-955,-588,7560,-2125,-683,7382,-2325,-934,7261,-2264,-613,7380,0,0,0,61,321,119,347.7,2287.8,0.081,-0.074,0.999,-20.210,-0.703,-73.130,329.3,1,-0.9062,0.3617,-0.1814,0.1229,0.0,-nan,0.2
156469,2026-08-29_06-24-10.471-240,v3.5.7,3.48,12.0,400,-1223,-755,7543,-2391,-827,7257,-2587,-1097,7206,-2532,-754,7258,0,0,0,55,343,52,351.3,2310.9,0.182,0.051,1.069,-1.640,-3.500,-65.809,332.2,1,-0.9117,0.3467,-0.2147,0.0493,0.0,-nan,0.0
156496,2026-08-29_06-24-11.497-240,v3.5.7,3.48,12.0,400,-1223,-755,7543,-2391,-827,7257,-2587,-1097,7206,-2532,-754,7258,0,0,0,55,343,52,351.3,2310.9,0.106,0.083,1.125,11.966,-1.891,-55.587,332.2,1,-0.9176,0.3171,-0.2395,-0.0100,0.0,-nan,0.2
156545,2026-08-29_06-24-11.549-240,v3.5.7,3.48,12.0,400,-1178,-897,7526,-2363,-983,7281,-2539,-1241,7197,-2503,-910,7281,0,0,0,36,331,84,343.4,2259.1,0.140,0.248,1.187,11.611,-1.766,-46.920,325.6,1,-0.9195,0.2890,-0.2598,-0.0595,0.0,-nan,0.2
156577,2026-08-29_06-24-11.578-240,v3.5.7,3.48,12.0,400,-1024,-974,7532,-2194,-1058,7335,-2387,-1321,7226,-2331,-985,7332,0,0,0,56,336,106,356.7,2347.0,0.267,0.330,1.088,3.027,-0.344,-45.663,336.8,1,-0.9156,0.2701,-0.2764,-0.1108,0.0,-nan,0.2
156615,2026-08-29_06-24-11.619-240,v3.5.7,3.48,12.0,400,-930,-1047,7553,-2194,-1058,7335,-2297,-1396,7261,-2331,-985,7332,0,0,0,-34,411,71,418.5,2753.1,0.054,0.252,1.118,-13.550,4.828,-42.406,388.6,1,-0.9055,0.2697,-0.2828,-0.1654,0.0,-nan,0.2
156651,2026-08-29_06-24-11.653-240,v3.5.7,3.48,12.0,400,-930,-1047,7553,-2129,-1155,7343,-2297,-1396,7261,-2264,-1082,7339,0,0,0,33,314,78,325.2,2139.6,0.046,0.167,1.145,-8.850,3.594,-38.985,310.4,1,-0.8947,0.2647,-0.2896,-0.2136,0.0,-nan,0.2
156682,2026-08-29_06-24-11.684-240,v3.5.7,3.48,12.0,400,-949,-1085,7547,-2155,-1170,7327,-2314,-1434,7253,-2290,-1097,7324,0,0,0,24,337,71,345.2,2271.3,0.018,0.198,1.100,-9.447,4.797,-33.643,327.2,1,-0.8835,0.2614,-0.2925,-0.2560,0.0,-nan,0.2
156729,2026-08-29_06-24-11.731-240,v3.5.7,3.48,12.0,400,-971,-1080,7552,-2155,-1170,7327,-2337,-1429,7255,-2290,-1097,7324,0,0,0,47,332,69,342.3,2252.2,0.078,0.213,1.121,-7.702,8.172,-28.246,324.8,1,-0.8744,0.2566,-0.2899,-0.2925,0.0,-nan,0.2
156759,2026-08-29_06-24-11.761-240,v3.5.7,3.48,12.0,400,-971,-1080,7552,-2160,-1158,7327,-2337,-1429,7255,-2295,-1085,7324,0,0,0,42,344,69,353.4,2324.7,0.102,0.195,1.102,-9.166,9.234,-25.344,334.0,1,-0.8650,0.2537,-0.2844,-0.3263,0.0,-nan,0.2
156790,2026-08-29_06-24-11.791-240,v3.5.7,3.48,12.0,400,-977,-1085,7572,-2160,-1158,7327,-2346,-1434,7273,-2295,-1085,7324,0,0,0,51,349,51,356.4,2344.6,0.084,0.209,1.111,-5.646,10.516,-18.716,336.5,1,-0.8591,0.2486,-0.2764,-0.3518,0.0,-nan,0.2
156819,2026-08-29_06-24-11.821-240,v3.5.7,3.48,12.0,400,-991,-1026,7565,-2163,-1127,7336,-2359,-1374,7264,-2299,-1054,7333,0,0,0,60,320,69,332.8,2189.5,0.070,0.225,1.123,-7.166,11.328,-17.099,316.8,1,-0.8530,0.2451,-0.2662,-0.3761,0.0,-nan,0.0
156862,2026-08-29_06-24-11.864-240,v3.5.7,3.48,12.0,400,-991,-1026,7565,-2166,-1055,7349,-2359,-1374,7264,-2303,-983,7346,0,0,0,56,391,82,403.4,2654.0,0.061,0.157,1.135,-12.322,7.969,-18.686,376.0,1,-0.8428,0.2480,-0.2575,-0.4024,0.0,-nan,0.0
156908,2026-08-29_06-24-11.909-240,v3.5.7,3.48,12.0,400,-1064,-948,7571,-2166,-1055,7349,-2433,-1295,7258,-2303,-983,7346,0,0,0,130,312,88,349.3,2297.8,0.049,0.167,1.141,-10.246,5.281,-20.372,330.6,1,-0.8308,0.2493,-0.2529,-0.4287,0.0,-nan,0.2
156936,2026-08-29_06-24-11.937-240,v3.5.7,3.48,12.0,400,-1082,-933,7564,-2224,-1034,7350,-2450,-1279,7249,-2362,-961,7348,0,0,0,88,318,99,344.5,2266.3,0.086,0.198,1.108,-12.866,4.141,-18.535,326.6,1,-0.8179,0.2543,-0.2473,-0.4531,0.0,-nan,0.2
156983,2026-08-29_06-24-11.984-240,v3.5.7,3.48,12.0,400,-1140,-930,7597,-2263,-1008,7305,-2513,-1276,7272,-2401,-935,7304,0,0,0,112,341,32,360.3,2370.7,0.012,0.136,1.103,-7.533,3.719,-15.642,339.9,1,-0.8076,0.2548,-0.2440,-0.4725,0.0,-nan,0.2
157023,2026-08-29_06-24-11.025-240,v3.5.7,3.48,12.0,400,-1140,-930,7597,-2263,-1008,7305,-2513,-1276,7272,-2401,-935,7304,0,0,0,112,341,32,360.3,2370.7,0.068,0.124,1.115,-0.357,1.344,-14.931,339.9,1,-0.7990,0.2496,-0.2471,-0.4881,0.0,-nan,0.2
157071,2026-08-29_06-24-11.073-240,v3.5.7,3.48,12.0,400,-1149,-939,7545,-2277,-988,7310,-2513,-1284,7220,-2416,-915,7309,0,0,0,97,369,89,391.8,2577.5,-0.000,0.231,1.042,-2.595,1.016,-16.995,366.2,1,-0.7880,0.2461,-0.2497,-0.5061,0.0,-nan,0.2
157099,2026-08-29_06-24-11.101-240,v3.5.7,3.48,12.0,400,-1098,-939,7557,-2256,-1005,7320,-2464,-1285,7240,-2394,-932,7318,0,0,0,70,353,78,368.2,2422.6,0.123,0.130,1.126,-6.576,2.062,-19.297,346.5,1,-0.7742,0.2450,-0.2492,-0.5277,0.0,-nan,0.2
157142,2026-08-29_06-24-11.144-240,v3.5.7,3.48,12.0,400,-1118,-949,7539,-2256,-1005,7320,-2481,-1294,7219,-2394,-932,7318,0,0,0,87,362,99,385.2,2534.5,0.024,0.214,1.088,-6.009,2.953,-17.658,360.8,1,-0.7615,0.2431,-0.2477,-0.5474,0.0,-nan,0.2
157182,2026-08-29_06-24-11.184-240,v3.5.7,3.48,12.0,400,-1118,-949,7539,-2252,-1007,7325,-2481,-1294,7219,-2390,-934,7323,0,0,0,91,360,104,385.6,2536.9,0.046,0.154,1.123,-4.856,4.547,-13.849,361.1,1,-0.7519,0.2401,-0.2441,-0.5634,0.0,-nan,0.2
157229,2026-08-29_06-24-11.231-240,v3.5.7,3.48,12.0,400,-1131,-952,7547,-2266,-991,7312,-2495,-1297,7225,-2404,-918,7311,0,0,0,91,379,86,399.1,2626.0,0.028,0.192,1.119,2.116,3.938,-7.085,372.4,1,-0.7487,0.2330,-0.2439,-0.5706,0.0,-nan,0.2
157259,2026-08-29_06-24-11.262-240,v3.5.7,3.48,12.0,400,-1124,-926,7543,-2266,-991,7312,-2488,-1271,7222,-2404,-918,7311,0,0,0,84,353,89,373.6,2458.0,0.028,0.193,1.122,-1.031,2.516,-4.817,351.0,1,-0.7458,0.2305,-0.2421,-0.5762,0.0,-nan,0.0
157287,2026-08-29_06-24-11.288-240,v3.5.7,3.48,12.0,400,-1108,-909,7555,-2241,-971,7333,-2474,-1254,7236,-2379,-899,7331,0,0,0,95,355,95,379.6,2497.2,0.030,0.151,1.110,0.033,1.891,-3.068,356.0,1,-0.7442,0.2280,-0.2412,-0.5796,0.0,-nan,0.2
157335,2026-08-29_06-24-11.337-240,v3.5.7,3.48,12.0,400,-1108,-909,7555,-2231,-939,7332,-2474,-1254,7236,-2369,-867,7330,0,0,0,105,387,94,411.9,2709.6,0.027,0.224,1.114,-7.205,2.281,-3.292,383.1,1,-0.7405,0.2318,-0.2347,-0.5855,0.0,-nan,0.2
157378,2026-08-29_06-24-11.379-240,v3.5.7,3.48,12.0,400,-1116,-896,7553,-2231,-939,7332,-2482,-1241,7233,-2369,-867,7330,0,0,0,113,374,97,402.6,2648.4,0.058,0.125,1.114,-10.200,4.891,-2.699,375.3,1,-0.7370,0.2367,-0.2234,-0.5924,0.0,-nan,0.2
157408,2026-08-29_06-24-11.409-240,v3.5.7,3.48,12.0,400,-1161,-859,7554,-2260,-903,7322,-2527,-1203,7227,-2399,-831,7321,0,0,0,128,372,94,404.5,2661.1,0.016,0.146,1.094,-6.720,6.875,-0.577,376.9,1,-0.7365,0.2374,-0.2121,-0.5969,0.0,-nan,0.2
157442,2026-08-29_06-24-11.444-240,v3.5.7,3.48,12.0,400,-1161,-859,7554,-2312,-854,7325,-2527,-1203,7227,-2452,-782,7324,0,0,0,75,421,97,438.5,2884.8,-0.019,0.139,1.116,-4.481,4.812,0.927,405.4,1,-0.7371,0.2380,-0.2040,-0.5986,0.0,-nan,0.2
157492,2026-08-29_06-24-12.494-240,v3.5.7,3.48,12.0,400,-1201,-791,7553,-2312,-854,7325,-2567,-1134,7219,-2452,-782,7324,0,0,0,115,352,105,384.9,2532.3,-0.008,0.141,1.116,3.092,1.578,3.231,360.5,1,-0.7409,0.2346,-0.2038,-0.5954,0.0,-nan,0.2
157523,2026-08-29_06-24-12.525-240,v3.5.7,3.48,12.0,400,-1211,-763,7609,-2298,-827,7315,-2586,-1107,7272,-2438,-755,7315,0,0,0,148,352,43,384.3,2528.0,-0.003,0.119,1.114,7.501,0.719,4.023,359.9,1,-0.7463,0.2280,-0.2074,-0.5899,0.0,-nan,0.2
157553,2026-08-29_06-24-12.554-240,v3.5.7,3.48,12.0,400,-1169,-750,7578,-2298,-827,7315,-2539,-1094,7248,-2438,-755,7315,0,0,0,101,339,67,360.0,2368.5,0.033,0.269,1.119,5.746,1.562,1.734,339.6,1,-0.7497,0.2217,-0.2096,-0.5873,0.0,-nan,0.2
157599,2026-08-29_06-24-12.601-240,v3.5.7,3.48,12.0,400,-1169,-750,7578,-2248,-781,7328,-2539,-1094,7248,-2388,-709,7327,0,0,0,151,385,79,421.0,2769.9,0.032,0.228,1.102,-17.954,3.672,-4.411,390.8,1,-0.7422,0.2344,-0.1941,-0.5970,0.0,-nan,0.0
157628,2026-08-29_06-24-12.629-240,v3.5.7,3.48,12.0,400,-1163,-717,7585,-2271,-761,7309,-2535,-1061,7256,-2411,-689,7309,0,0,0,124,372,53,395.7,2603.2,-0.016,0.069,1.103,-17.902,6.359,-4.477,369.5,1,-0.7350,0.2449,-0.1760,-0.6072,0.0,-nan,0.2
157669,2026-08-29_06-24-12.670-240,v3.5.7,3.48,12.0,400,-1272,-654,7569,-2271,-761,7309,-2640,-996,7224,-2411,-689,7309,0,0,0,229,307,85,392.3,2581.1,-0.122,0.111,1.215,-4.866,2.578,0.103,366.7,1,-0.7342,0.2473,-0.1698,-0.6090,0.0,-nan,0.0
157702,2026-08-29_06-24-12.704-240,v3.5.7,3.48,12.0,400,-1272,-654,7569,-2349,-698,7249,-2640,-996,7224,-2490,-626,7250,0,0,0,150,370,26,400.1,2632.2,-0.009,0.182,1.120,-0.414,0.656,-0.248,373.2,1,-0.7341,0.2469,-0.1689,-0.6096,0.0,-nan,0.2
157732,2026-08-29_06-24-12.734-240,v3.5.7,3.48,12.0,400,-1295,-622,7561,-2349,-698,7249,-2662,-963,7212,-2490,-626,7250,0,0,0,172,337,38,380.3,2501.7,0.083,0.218,1.104,-7.071,1.141,-3.279,356.6,1,-0.7297,0.2516,-0.1635,-0.6144,0.0,-nan,0.2
157763,2026-08-29_06-24-12.764-240,v3.5.7,3.48,12.0,400,-1316,-618,7559,-2357,-690,7208,-2682,-958,7207,-2498,-619,7210,0,0,0,184,339,3,385.7,2537.7,0.009,0.092,1.137,-9.201,-0.016,-7.155,361.2,1,-0.7213,0.2583,-0.1586,-0.6228,0.0,-nan,0.2
157809,2026-08-29_06-24-12.811-240,v3.5.7,3.48,12.0,400,-1316,-618,7559,-2396,-665,7201,-2682,-958,7207,-2538,-593,7203,0,0,0,144,365,-4,392.4,2581.6,0.057,0.221,1.103,-11.772,-1.391,-4.859,366.8,1,-0.7134,0.2688,-0.1522,-0.6290,0.0,-nan,0.2
157842,2026-08-29_06-24-12.844-240,v3.5.7,3.48,12.0,400,-1360,-627,7550,-2396,-665,7201,-2725,-967,7192,-2538,-593,7203,0,0,0,187,374,11,418.3,2751.9,0.086,0.044,1.178,-17.256,0.078,-6.763,388.5,1,-0.7021,0.2826,-0.1407,-0.6382,0.0,-nan,0.2
157872,2026-08-29_06-24-12.874-240,v3.5.7,3.48,12.0,400,-1436,-625,7526,-2457,-692,7188,-2796,-963,7157,-2600,-620,7191,0,0,0,196,343,34,396.5,2608.6,0.025,0.043,1.112,-3.208,0.016,-3.994,370.2,1,-0.6979,0.2845,-0.1395,-0.6423,0.0,-nan,0.2
157916,2026-08-29_06-24-12.917-240,v3.5.7,3.48,12.0,400,-1436,-625,7526,-2487,-693,7178,-2796,-963,7157,-2630,-621,7181,0,0,0,166,342,24,380.9,2506.0,-0.026,0.173,1.123,1.079,-0.375,-3.131,357.1,1,-0.6957,0.2831,-0.1418,-0.6448,0.0,-nan,0.2
157960,2026-08-29_06-24-12.964-240,v3.5.7,3.48,12.0,400,-1428,-612,7530,-2487,-693,7178,-2789,-950,7162,-2630,-621,7181,0,0,0,159,329,19,365.9,2407.2,-0.005,0.098,1.112,-2.681,-1.406,-3.955,344.5,1,-0.6914,0.2857,-0.1422,-0.6482,0.0,-nan,0.2
157989,2026-08-29_06-24-12.991-240,v3.5.7,3.48,12.0,400,-1415,-622,7537,-2475,-694,7178,-2777,-960,7171,-2618,-622,7181,0,0,0,159,338,10,373.7,2458.3,0.009,0.130,1.120,0.958,-0.906,-2.809,351.0,1,-0.6893,0.2849,-0.1447,-0.6502,0.0,-nan,0.2
158023,2026-08-29_06-24-12.024-240,v3.5.7,3.48,12.0,400,-1415,-622,7537,-2475,-694,7178,-2777,-960,7171,-2618,-622,7181,0,0,0,159,338,10,373.7,2458.3,0.004,0.220,1.117,-5.168,-1.078,-4.107,351.0,1,-0.6840,0.2892,-0.1428,-0.6543,0.0,-nan,0.2
158053,2026-08-29_06-24-12.054-240,v3.5.7,3.48,12.0,400,-1412,-619,7543,-2468,-710,7171,-2775,-958,7177,-2611,-638,7174,0,0,0,164,320,-3,359.6,2365.7,-0.012,0.098,1.118,-9.270,-1.375,-4.463,339.2,1,-0.6767,0.2973,-0.1380,-0.6593,0.0,-nan,0.2
158079,2026-08-29_06-24-12.080-240,v3.5.7,3.48,12.0,400,-1433,-628,7529,-2468,-710,7171,-2793,-966,7160,-2611,-638,7174,0,0,0,182,328,14,375.4,2469.6,0.019,0.002,1.107,-0.357,-1.656,-3.493,352.5,1,-0.6735,0.2982,-0.1403,-0.6617,0.0,-nan,0.2
158127,2026-08-29_06-24-12.129-240,v3.5.7,3.48,12.0,400,-1433,-628,7529,-2479,-680,7167,-2793,-966,7160,-2622,-608,7170,0,0,0,171,358,10,396.9,2611.0,0.080,0.267,1.092,6.427,-1.266,-1.149,370.5,1,-0.6747,0.2934,-0.1471,-0.6611,0.0,-nan,0.0
158158,2026-08-29_06-24-12.159-240,v3.5.7,3.48,12.0,400,-1403,-620,7542,-2436,-697,7188,-2766,-959,7177,-2578,-625,7191,0,0,0,188,334,14,383.5,2523.2,0.053,0.215,1.105,-8.920,-0.688,-3.637,359.3,1,-0.6683,0.3006,-0.1416,-0.6655,0.0,-nan,0.2
158207,2026-08-29_06-24-12.209-240,v3.5.7,3.48,12.0,400,-1404,-622,7533,-2464,-673,7188,-2765,-960,7168,-2607,-601,7191,0,0,0,158,359,23,392.9,2584.9,-0.051,0.072,1.126,0.925,-1.672,-3.024,367.2,1,-0.6659,0.3005,-0.1449,-0.6673,0.0,-nan,0.2
158253,2026-08-29_06-24-12.254-240,v3.5.7,3.48,12.0,400,-1399,-621,7517,-2464,-673,7188,-2758,-959,7154,-2607,-601,7191,0,0,0,151,358,37,390.3,2567.8,0.056,0.198,1.103,-3.931,-1.078,-4.153,365.0,1,-0.6608,0.3037,-0.1440,-0.6711,0.0,-nan,0.2
158282,2026-08-29_06-24-12.284-240,v3.5.7,3.48,12.0,400,-1399,-621,7517,-2458,-688,7182,-2758,-959,7154,-2601,-616,7185,0,0,0,157,343,31,378.5,2490.1,0.027,0.089,1.107,-5.602,-0.406,-4.109,355.1,1,-0.6552,0.3077,-0.1412,-0.6753,0.0,-nan,0.2
158313,2026-08-29_06-24-12.314-240,v3.5.7,3.48,12.0,400,-1412,-623,7538,-2458,-688,7182,-2774,-961,7172,-2601,-616,7185,0,0,0,173,345,13,386.2,2540.6,0.032,0.060,1.108,2.960,-1.406,-2.936,361.5,1,-0.6537,0.3058,-0.1459,-0.6767,0.0,-nan,0.2
158343,2026-08-29_06-24-12.344-240,v3.5.7,3.48,12.0,400,-1398,-624,7534,-2464,-686,7182,-2760,-963,7170,-2607,-614,7185,0,0,0,153,349,15,381.4,2508.9,0.003,0.110,1.082,9.092,-1.250,-1.659,357.5,1,-0.6555,0.2989,-0.1552,-0.6759,0.0,-nan,0.2
158390,2026-08-29_06-24-12.393-240,v3.5.7,3.48,12.0,400,-1398,-624,7534,-2408,-688,7223,-2760,-963,7170,-2550,-616,7225,0,0,0,210,347,55,409.3,2692.8,-0.021,0.279,1.127,-9.113,-0.531,-5.221,381.0,1,-0.6476,0.3056,-0.1499,-0.6818,0.0,-nan,0.0
158427,2026-08-29_06-24-12.428-240,v3.5.7,3.48,12.0,400,-1356,-626,7531,-2408,-688,7223,-2717,-965,7174,-2550,-616,7225,0,0,0,167,349,51,390.2,2567.4,-0.008,0.025,1.116,-7.674,-0.625,-4.699,365.0,1,-0.6406,0.3112,-0.1456,-0.6868,0.0,-nan,0.2
158455,2026-08-29_06-24-12.457-240,v3.5.7,3.48,12.0,400,-1402,-613,7543,-2432,-697,7187,-2765,-952,7178,-2574,-625,7190,0,0,0,191,327,12,378.9,2492.7,-0.017,0.076,1.118,3.010,-0.984,-2.568,355.4,1,-0.6394,0.3090,-0.1499,-0.6879,0.0,-nan,0.2
158492,2026-08-29_06-24-13.493-240,v3.5.7,3.48,12.0,400,-1402,-613,7543,-2428,-687,7188,-2765,-952,7178,-2570,-615,7191,0,0,0,195,337,13,389.6,2562.9,0.001,0.192,1.117,2.140,-1.359,-2.950,364.4,1,-0.6375,0.3077,-0.1539,-0.6894,0.0,-nan,0.2
158545,2026-08-29_06-24-13.549-240,v3.5.7,3.48,12.0,400,-1360,-647,7545,-2428,-687,7188,-2724,-987,7187,-2570,-615,7191,0,0,0,154,372,4,402.6,2648.9,-0.019,0.084,1.119,-4.813,-0.547,-4.618,375.4,1,-0.6316,0.3109,-0.1519,-0.6938,0.0,-nan,0.2
158574,2026-08-29_06-24-13.575-240,v3.5.7,3.48,12.0,400,-1378,-607,7543,-2417,-698,7181,-2741,-946,7182,-2559,-626,7184,0,0,0,182,320,2,368.1,2422.0,-0.024,0.118,1.121,2.905,-0.953,-2.561,346.4,1,-0.6304,0.3088,-0.1562,-0.6949,0.0,-nan,0.2
158605,2026-08-29_06-24-13.609-240,v3.5.7,3.48,12.0,400,-1378,-607,7543,-2417,-698,7181,-2741,-946,7182,-2559,-626,7184,0,0,0,182,320,2,368.1,2422.0,-0.014,0.176,1.120,-0.858,-1.250,-2.518,346.4,1,-0.6276,0.3099,-0.1573,-0.6966,0.0,-nan,0.2
158635,2026-08-29_06-24-13.637-240,v3.5.7,3.48,12.0,400,-1370,-624,7559,-2408,-659,7200,-2736,-964,7199,-2550,-587,7202,0,0,0,186,377,3,420.4,2765.8,-0.004,0.121,1.125,-2.746,-0.234,-3.755,390.3,1,-0.6233,0.3113,-0.1565,-0.7001,0.0,-nan,0.2
158663,2026-08-29_06-24-13.664-240,v3.5.7,3.48,12.0,400,-1353,-619,7556,-2408,-659,7200,-2719,-959,7198,-2550,-587,7202,0,0,0,169,372,4,408.6,2688.2,-0.003,0.167,1.116,-1.552,-0.344,-3.470,380.4,1,-0.6197,0.3119,-0.1568,-0.7030,0.0,-nan,0.2
158707,2026-08-29_06-24-13.708-240,v3.5.7,3.48,12.0,400,-1353,-619,7556,-2394,-706,7206,-2719,-959,7198,-2536,-634,7208,0,0,0,183,325,10,373.1,2454.7,-0.009,0.136,1.117,-7.526,-0.875,-3.972,350.6,1,-0.6131,0.3175,-0.1523,-0.7072,0.0,-nan,0.2
158735,2026-08-29_06-24-13.738-240,v3.5.7,3.48,12.0,400,-1367,-614,7545,-2423,-687,7192,-2731,-953,7186,-2565,-615,7194,0,0,0,166,338,8,376.6,2477.9,-0.015,0.090,1.119,-3.733,-0.641,-3.528,353.5,1,-0.6084,0.3201,-0.1509,-0.7104,0.0,-nan,0.2
158777,2026-08-29_06-24-13.778-240,v3.5.7,3.48,12.0,400,-1375,-619,7545,-2423,-687,7192,-2739,-958,7184,-2565,-615,7194,0,0,0,174,343,10,384.7,2531.2,0.007,0.153,1.113,0.025,-0.609,-3.551,360.3,1,-0.6052,0.3198,-0.1527,-0.7129,0.0,-nan,0.2
158819,2026-08-29_06-24-13.821-240,v3.5.7,3.48,12.0,400,-1347,-619,7548,-2405,-696,7197,-2711,-959,7192,-2547,-624,7199,0,0,0,164,335,7,373.1,2454.3,-0.012,0.203,1.117,-6.300,-0.453,-4.319,350.5,1,-0.5988,0.3239,-0.1492,-0.7172,0.0,-nan,0.0
158863,2026-08-29_06-24-13.864-240,v3.5.7,3.48,12.0,400,-1347,-619,7548,-2436,-693,7180,-2711,-959,7192,-2578,-621,7183,0,0,0,133,338,-9,363.3,2390.4,-0.004,0.053,1.112,-6.831,-0.453,-0.801,342.4,1,-0.5952,0.3291,-0.1436,-0.7189,0.0,-nan,0.0
158900,2026-08-29_06-24-13.904-240,v3.5.7,3.48,12.0,400,-1411,-618,7531,-2436,-693,7180,-2772,-956,7165,-2578,-621,7183,0,0,0,194,335,18,387.5,2549.6,-0.004,0.089,1.116,5.728,-0.344,-2.423,362.7,1,-0.5954,0.3245,-0.1500,-0.7195,0.0,-nan,0.0
158929,2026-08-29_06-24-13.930-240,v3.5.7,3.48,12.0,400,-1401,-616,7542,-2459,-690,7182,-2764,-955,7178,-2602,-618,7185,0,0,0,162,337,7,374.0,2460.4,0.010,0.287,1.114,-2.895,-0.797,-3.921,351.3,1,-0.5906,0.3264,-0.1496,-0.7227,0.0,-nan,0.2
158969,2026-08-29_06-24-13.971-240,v3.5.7,3.48,12.0,400,-1401,-616,7542,-2442,-691,7187,-2764,-955,7178,-2584,-619,7190,0,0,0,180,336,12,381.4,2509.0,-0.001,0.061,1.115,-5.898,-0.844,-3.685,357.5,1,-0.5847,0.3307,-0.1463,-0.7262,0.0,-nan,0.0
159012,2026-08-29_06-24-13.014-240,v3.5.7,3.48,12.0,400,-1398,-626,7545,-2442,-691,7187,-2761,-965,7181,-2584,-619,7190,0,0,0,177,346,9,388.7,2557.6,-0.016,0.140,1.115,2.082,-0.594,-2.988,363.7,1,-0.5828,0.3290,-0.1498,-0.7278,0.0,-nan,0.2
159043,2026-08-29_06-24-13.045-240,v3.5.7,3.48,12.0,400,-1384,-623,7544,-2466,-663,7186,-2747,-962,7182,-2609,-591,7189,0,0,0,138,371,7,395.9,2604.6,-0.010,0.172,1.120,-1.051,-1.047,-2.695,369.7,1,-0.5798,0.3300,-0.1507,-0.7296,0.0,-nan,0.2
159075,2026-08-29_06-24-13.076-240,v3.5.7,3.48,12.0,400,-1384,-623,7544,-2466,-663,7186,-2747,-962,7182,-2609,-591,7189,0,0,0,138,371,7,395.9,2604.6,-0.010,0.150,1.117,-6.797,-1.328,-3.960,369.7,1,-0.5731,0.3352,-0.1471,-0.7332,0.0,-nan,0.2
159126,2026-08-29_06-24-13.128-240,v3.5.7,3.48,12.0,400,-1398,-594,7545,-2441,-678,7159,-2762,-933,7181,-2583,-606,7162,0,0,0,179,327,-19,373.3,2455.7,-0.004,0.111,1.117,1.143,-0.750,-3.114,350.7,1,-0.5707,0.3343,-0.1499,-0.7349,0.0,-nan,0.0
159155,2026-08-29_06-24-13.158-240,v3.5.7,3.48,12.0,400,-1407,-618,7542,-2443,-687,7181,-2770,-957,7177,-2585,-615,7184,0,0,0,185,342,7,388.9,2558.5,-0.006,0.194,1.115,-1.273,-0.906,-3.956,363.8,1,-0.5664,0.3351,-0.1511,-0.7376,0.0,-nan,0.2
159189,2026-08-29_06-24-13.191-240,v3.5.7,3.48,12.0,400,-1399,-621,7538,-2443,-687,7181,-2761,-960,7174,-2585,-615,7184,0,0,0,176,345,10,387.4,2548.9,-0.006,0.082,1.115,-1.863,-0.500,-3.507,362.6,1,-0.5623,0.3360,-0.1511,-0.7403,0.0,-nan,0.2
159233,2026-08-29_06-24-13.234-240,v3.5.7,3.48,12.0,400,-1399,-621,7538,-2442,-698,7183,-2761,-960,7174,-2584,-626,7186,0,0,0,177,334,12,378.2,2488.1,-0.003,0.164,1.118,-2.007,-0.719,-3.226,354.8,1,-0.5584,0.3373,-0.1511,-0.7427,0.0,-nan,0.2
159263,2026-08-29_06-24-13.264-240,v3.5.7,3.48,12.0,400,-1395,-621,7547,-2442,-690,7193,-2759,-960,7183,-2585,-618,7196,0,0,0,174,342,13,383.9,2525.9,-0.000,0.162,1.118,-6.068,-0.422,-3.822,359.7,1,-0.5523,0.3410,-0.1473,-0.7463,0.0,-nan,0.2
159309,2026-08-29_06-24-13.310-240,v3.5.7,3.50,12.0,400,-1407,-615,7559,-2442,-690,7193,-2773,-954,7193,-2585,-618,7196,0,0,0,188,336,3,385.0,2533.1,-0.008,0.127,1.119,-4.754,-0.578,-3.859,360.6,1,-0.5466,0.3440,-0.1449,-0.7496,0.0,-nan,0.0
159337,2026-08-29_06-24-13.338-240,v3.5.7,3.50,12.0,400,-1407,-615,7559,-2461,-688,7182,-2773,-954,7193,-2604,-616,7185,0,0,0,169,338,-8,378.0,2486.7,-0.004,0.087,1.115,-2.087,-0.781,-3.522,354.7,1,-0.5423,0.3453,-0.1450,-0.7521,0.0,-nan,0.2
159365,2026-08-29_06-24-13.369-240,v3.5.7,3.50,12.0,400,-1428,-616,7533,-2461,-688,7182,-2789,-954,7165,-2604,-616,7185,0,0,0,185,338,20,385.8,2538.4,-0.005,0.127,1.116,0.859,-1.109,-2.481,361.3,1,-0.5402,0.3451,-0.1476,-0.7532,0.0,-nan,0.2
159398,2026-08-29_06-24-13.399-240,v3.5.7,3.50,12.0,400,-1414,-623,7540,-2464,-693,7182,-2776,-961,7174,-2607,-621,7185,0,0,0,169,340,11,379.8,2499.0,-0.006,0.191,1.118,-3.505,-0.641,-3.696,356.2,1,-0.5351,0.3472,-0.1463,-0.7561,0.0,-nan,0.2
159443,2026-08-29_06-24-13.444-240,v3.5.7,3.50,12.0,400,-1414,-623,7540,-2469,-676,7180,-2776,-961,7174,-2612,-604,7183,0,0,0,164,357,9,393.0,2585.3,-0.000,0.084,1.114,-4.948,-0.688,-4.414,367.2,1,-0.5287,0.3502,-0.1439,-0.7597,0.0,-nan,0.2
159482,2026-08-29_06-24-14.484-240,v3.5.7,3.50,12.0,400,-1436,-634,7526,-2469,-676,7180,-2796,-972,7157,-2612,-604,7183,0,0,0,184,368,26,412.3,2712.2,-0.009,0.110,1.117,-0.874,-1.031,-3.140,383.4,1,-0.5252,0.3510,-0.1451,-0.7615,0.0,-nan,0.2
159509,2026-08-29_06-24-14.511-240,v3.5.7,3.50,12.0,400,-1433,-621,7529,-2486,-685,7172,-2793,-959,7160,-2629,-613,7175,0,0,0,164,346,15,383.2,2521.0,-0.003,0.133,1.118,1.339,-0.844,-3.587,359.0,1,-0.5223,0.3501,-0.1485,-0.7633,0.0,-nan,0.2
159549,2026-08-29_06-24-14.551-240,v3.5.7,3.50,12.0,400,-1433,-621,7529,-2468,-686,7189,-2793,-959,7160,-2611,-614,7192,0,0,0,182,345,32,391.4,2574.8,-0.007,0.137,1.115,-4.277,-0.281,-3.502,365.9,1,-0.5170,0.3523,-0.1461,-0.7663,0.0,-nan,0.0
159599,2026-08-29_06-24-14.601-240,v3.5.7,3.50,12.0,400,-1407,-628,7529,-2468,-686,7189,-2768,-966,7164,-2611,-614,7192,0,0,0,157,352,28,386.4,2542.4,-0.011,0.114,1.116,0.812,-0.188,-2.688,361.8,1,-0.5148,0.3513,-0.1482,-0.7678,0.0,-nan,0.0
159626,2026-08-29_06-24-14.628-240,v3.5.7,3.50,12.0,400,-1409,-582,7535,-2462,-689,7176,-2771,-920,7169,-2605,-617,7179,0,0,0,166,303,10,345.6,2273.9,0.001,0.153,1.116,-0.246,-0.641,-3.051,327.5,1,-0.5117,0.3513,-0.1496,-0.7696,0.0,-nan,0.2
159659,2026-08-29_06-24-14.661-240,v3.5.7,3.50,12.0,400,-1409,-582,7535,-2462,-689,7176,-2771,-920,7169,-2605,-617,7179,0,0,0,166,303,10,345.6,2273.9,0.001,0.129,1.110,-1.251,-0.812,-3.698,327.5,1,-0.5075,0.3521,-0.1506,-0.7719,0.0,-nan,0.2
159706,2026-08-29_06-24-14.708-240,v3.5.7,3.50,12.0,400,-1419,-615,7530,-2450,-682,7205,-2780,-953,7163,-2593,-610,7208,0,0,0,187,343,45,393.2,2587.1,-0.008,0.205,1.116,-4.491,-0.125,-4.029,367.5,1,-0.5017,0.3541,-0.1481,-0.7753,0.0,-nan,0.2
159735,2026-08-29_06-24-14.739-240,v3.5.7,3.50,12.0,400,-1398,-616,7535,-2434,-698,7187,-2760,-955,7171,-2576,-626,7190,0,0,0,184,329,19,377.4,2483.1,-0.013,0.101,1.117,-6.616,-0.266,-4.209,354.2,1,-0.4946,0.3575,-0.1436,-0.7790,0.0,-nan,0.2
159775,2026-08-29_06-24-14.777-240,v3.5.7,3.50,12.0,400,-1419,-623,7533,-2434,-698,7187,-2780,-961,7166,-2576,-626,7190,0,0,0,204,335,24,393.0,2585.3,-0.007,0.106,1.115,-0.496,-0.547,-3.358,367.2,1,-0.4911,0.3576,-0.1450,-0.7810,0.0,-nan,0.2
159813,2026-08-29_06-24-14.815-240,v3.5.7,3.50,12.0,400,-1419,-623,7533,-2458,-681,7179,-2780,-961,7166,-2601,-609,7182,0,0,0,179,352,16,395.2,2600.1,-0.008,0.123,1.115,-0.510,-0.672,-3.008,369.1,1,-0.4879,0.3578,-0.1462,-0.7827,0.0,-nan,0.2
159842,2026-08-29_06-24-14.843-240,v3.5.7,3.50,12.0,400,-1416,-619,7545,-2478,-659,7178,-2779,-958,7178,-2621,-587,7181,0,0,0,158,371,3,403.3,2653.0,-0.004,0.155,1.118,3.427,-0.812,-2.502,375.9,1,-0.4868,0.3559,-0.1511,-0.7833,0.0,-nan,0.2
159893,2026-08-29_06-24-14.895-240,v3.5.7,3.50,12.0,400,-1393,-627,7531,-2478,-659,7178,-2754,-966,7168,-2621,-587,7181,0,0,0,133,379,13,401.9,2643.9,0.001,0.191,1.115,-8.627,-0.203,-4.130,374.7,1,-0.4789,0.3604,-0.1446,-0.7873,0.0,-nan,0.2
159920,2026-08-29_06-24-14.922-240,v3.5.7,3.50,12.0,400,-1393,-627,7531,-2431,-693,7188,-2754,-966,7168,-2573,-621,7191,0,0,0,181,345,23,390.3,2567.6,-0.006,0.058,1.116,-5.872,-0.547,-4.296,365.0,1,-0.4720,0.3635,-0.1411,-0.7907,0.0,-nan,0.2
159948,2026-08-29_06-24-14.949-240,v3.5.7,3.50,12.0,400,-1406,-619,7536,-2431,-693,7188,-2768,-957,7171,-2573,-621,7191,0,0,0,195,336,20,389.0,2559.2,-0.000,0.095,1.113,-0.222,-1.000,-3.228,363.9,1,-0.4686,0.3638,-0.1429,-0.7922,0.0,-nan,0.2
159978,2026-08-29_06-24-14.979-240,v3.5.7,3.50,12.0,400,-1412,-618,7538,-2466,-693,7183,-2774,-956,7172,-2609,-621,7186,0,0,0,165,335,14,373.7,2458.5,-0.004,0.157,1.117,-0.559,-1.078,-3.124,351.1,1,-0.4651,0.3645,-0.1443,-0.7937,0.0,-nan,0.2
160023,2026-08-29_06-24-14.024-240,v3.5.7,3.50,12.0,400,-1412,-618,7538,-2446,-698,7179,-2774,-956,7172,-2588,-626,7182,0,0,0,186,330,10,378.9,2493.0,-0.004,0.181,1.118,-5.445,-1.188,-4.524,355.5,1,-0.4579,0.3678,-0.1417,-0.7968,0.0,-nan,0.2
160071,2026-08-29_06-24-14.073-240,v3.5.7,3.50,12.0,400,-1403,-624,7542,-2473,-689,7187,-2766,-963,7177,-2616,-617,7190,0,0,0,150,346,13,377.3,2482.5,-0.006,0.122,1.114,-6.748,-0.484,-4.313,354.1,1,-0.4505,0.3712,-0.1372,-0.8003,0.0,-nan,0.2
160125,2026-08-29_06-24-14.127-240,v3.5.7,3.50,12.0,400,-1431,-618,7532,-2473,-689,7187,-2792,-956,7163,-2616,-617,7190,0,0,0,176,339,27,382.9,2519.2,-0.005,0.122,1.109,-2.416,-1.547,-3.278,358.8,1,-0.4459,0.3734,-0.1371,-0.8019,0.0,-nan,0.2
160153,2026-08-29_06-24-14.154-240,v3.5.7,3.50,12.0,400,-1442,-588,7492,-2491,-703,7177,-2796,-925,7122,-2634,-631,7180,0,0,0,162,294,58,340.7,2241.1,-0.007,0.170,1.119,-4.438,-1.078,-3.843,323.3,1,-0.4398,0.3761,-0.1351,-0.8043,0.0,-nan,0.2
160183,2026-08-29_06-24-14.185-240,v3.5.7,3.50,12.0,400,-1442,-588,7492,-2491,-703,7177,-2796,-925,7122,-2634,-631,7180,0,0,0,162,294,58,340.7,2241.1,-0.017,0.063,1.117,-6.049,-1.141,-3.977,323.3,1,-0.4328,0.3797,-0.1314,-0.8070,0.0,-nan,0.2
160210,2026-08-29_06-24-14.212-240,v3.5.7,3.50,12.0,400,-1472,-620,7557,-2483,-684,7140,-2837,-958,7182,-2626,-612,7144,0,0,0,211,346,-38,407.0,2677.9,-0.027,0.096,1.117,3.160,-1.234,-2.745,379.1,1,-0.4314,0.3786,-0.1366,-0.8074,0.0,-nan,0.0
160245,2026-08-29_06-24-14.249-240,v3.5.7,3.50,12.0,400,-1460,-636,7528,-2483,-684,7140,-2820,-973,7155,-2626,-612,7144,0,0,0,194,361,-11,410.0,2697.2,-0.004,0.181,1.118,-1.642,-1.094,-3.220,381.5,1,-0.4272,0.3799,-0.1370,-0.8089,0.0,-nan,0.2
160285,2026-08-29_06-24-14.287-240,v3.5.7,3.50,12.0,400,-1460,-636,7528,-2521,-667,7176,-2820,-973,7155,-2665,-595,7180,0,0,0,155,378,25,409.3,2692.8,0.004,0.090,1.112,-3.711,-0.078,-3.739,381.0,1,-0.4217,0.3812,-0.1351,-0.8116,0.0,-nan,0.2
160313,2026-08-29_06-24-14.314-240,v3.5.7,3.50,12.0,400,-1459,-627,7524,-2497,-681,7157,-2818,-964,7151,-2640,-609,7160,0,0,0,178,355,9,397.2,2613.3,0.003,0.124,1.115,-0.492,-0.531,-3.415,370.8,1,-0.4179,0.3812,-0.1364,-0.8133,0.0,-nan,0.2
160356,2026-08-29_06-24-14.357-240,v3.5.7,3.50,12.0,400,-1452,-621,7526,-2497,-681,7157,-2812,-958,7154,-2640,-609,7160,0,0,0,172,349,6,389.1,2560.1,-0.010,0.125,1.118,-3.143,-0.828,-3.725,364.0,1,-0.4126,0.3829,-0.1354,-0.8154,0.0,-nan,0.0
160395,2026-08-29_06-24-14.399-240,v3.5.7,3.50,12.0,400,-1452,-621,7526,-2495,-687,7160,-2812,-958,7154,-2638,-615,7163,0,0,0,174,343,9,384.7,2531.0,-0.005,0.137,1.117,-1.046,-0.609,-3.780,360.3,1,-0.4081,0.3832,-0.1365,-0.8173,0.0,-nan,0.2
160425,2026-08-29_06-24-14.427-240,v3.5.7,3.50,12.0,400,-1454,-621,7536,-2497,-690,7170,-2815,-959,7164,-2640,-618,7173,0,0,0,175,341,9,383.4,2522.3,-0.004,0.132,1.117,-2.672,-0.688,-3.816,359.2,1,-0.4029,0.3845,-0.1359,-0.8194,0.0,-nan,0.2
160478,2026-08-29_06-24-14.479-240,v3.5.7,3.50,12.0,400,-1461,-625,7523,-2497,-690,7170,-2820,-962,7150,-2640,-618,7173,0,0,0,180,344,23,388.9,2558.7,-0.004,0.124,1.114,-7.800,-0.859,-4.229,363.9,1,-0.3947,0.3884,-0.1303,-0.8224,0.0,-nan,0.2
160507,2026-08-29_06-24-15.508-240,v3.5.7,3.50,12.0,400,-1478,-619,7519,-2503,-693,7162,-2836,-956,7144,-2646,-621,7165,0,0,0,190,335,21,385.7,2537.5,-0.007,0.098,1.116,0.939,-1.078,-5.811,361.1,1,-0.3890,0.3879,-0.1346,-0.8246,0.0,-nan,0.2
160550,2026-08-29_06-24-15.552-240,v3.5.7,3.50,12.0,400,-1478,-619,7519,-2515,-689,7163,-2836,-956,7144,-2659,-617,7167,0,0,0,177,339,23,383.1,2520.5,-0.009,0.064,1.116,-1.303,-0.766,-3.289,359.0,1,-0.3849,0.3886,-0.1352,-0.8261,0.0,-nan,0.2
160593,2026-08-29_06-24-15.595-240,v3.5.7,3.50,12.0,400,-1471,-626,7519,-2515,-689,7163,-2829,-963,7145,-2659,-617,7167,0,0,0,170,346,22,386.1,2540.4,-0.001,0.167,1.115,1.804,-1.062,-3.188,361.5,1,-0.3824,0.3881,-0.1391,-0.8269,0.0,-nan,0.2
160623,2026-08-29_06-24-15.624-240,v3.5.7,3.50,12.0,400,-1455,-615,7527,-2504,-689,7168,-2815,-952,7155,-2647,-617,7171,0,0,0,168,335,16,375.1,2467.8,-0.004,0.169,1.120,-4.020,-0.828,-3.651,352.3,1,-0.3766,0.3901,-0.1371,-0.8290,0.0,-nan,0.2
160659,2026-08-29_06-24-15.661-240,v3.5.7,3.50,12.0,400,-1455,-615,7527,-2511,-686,7173,-2815,-952,7155,-2655,-614,7176,0,0,0,160,338,21,374.5,2464.1,-0.005,0.069,1.115,-5.215,-0.281,-3.845,351.8,1,-0.3700,0.3920,-0.1337,-0.8316,0.0,-nan,0.0
160707,2026-08-29_06-24-15.709-240,v3.5.7,3.50,12.0,400,-1452,-577,7528,-2511,-686,7173,-2812,-914,7156,-2655,-614,7176,0,0,0,157,300,20,339.2,2231.5,-0.009,0.152,1.118,1.706,-1.266,-2.826,322.1,1,-0.3678,0.3919,-0.1374,-0.8320,0.0,-nan,0.2
160738,2026-08-29_06-24-15.739-240,v3.5.7,3.50,12.0,400,-1475,-617,7590,-2477,-686,7167,-2845,-956,7214,-2620,-614,7170,0,0,0,225,342,-44,411.7,2708.8,-0.001,0.155,1.115,-2.924,-0.672,-3.689,383.0,1,-0.3624,0.3932,-0.1365,-0.8339,0.0,-nan,0.2
160769,2026-08-29_06-24-15.771-240,v3.5.7,3.50,12.0,400,-1454,-622,7536,-2477,-686,7167,-2815,-960,7164,-2620,-614,7170,0,0,0,195,346,6,397.2,2613.2,-0.006,0.126,1.117,-3.715,-0.453,-3.809,370.8,1,-0.3566,0.3945,-0.1347,-0.8361,0.0,-nan,0.2
160819,2026-08-29_06-24-15.821-240,v3.5.7,3.50,12.0,400,-1454,-622,7536,-2497,-687,7161,-2815,-960,7164,-2640,-615,7164,0,0,0,175,345,0,386.8,2545.0,0.020,0.092,1.098,-4.558,-0.703,-4.333,362.1,1,-0.3497,0.3964,-0.1323,-0.8385,0.0,-nan,0.0
160847,2026-08-29_06-24-15.849-240,v3.5.7,3.50,12.0,400,-1473,-621,7529,-2505,-696,7162,-2833,-958,7154,-2648,-624,7165,0,0,0,185,334,11,382.0,2513.0,-0.006,0.110,1.111,-2.301,-0.578,-3.579,358.0,1,-0.3448,0.3972,-0.1319,-0.8402,0.0,-nan,0.2
160889,2026-08-29_06-24-15.891-240,v3.5.7,3.50,12.0,400,-1472,-617,7539,-2505,-696,7162,-2834,-954,7164,-2648,-624,7165,0,0,0,186,330,1,378.8,2492.2,-0.003,0.198,1.120,-5.939,-0.500,-4.474,355.4,1,-0.3371,0.3994,-0.1281,-0.8429,0.0,-nan,0.0
160921,2026-08-29_06-24-15.922-240,v3.5.7,3.50,12.0,400,-1472,-617,7539,-2519,-690,7164,-2834,-954,7164,-2663,-618,7168,0,0,0,171,336,4,377.0,2480.5,-0.011,0.113,1.117,-10.215,-0.562,-4.567,353.9,1,-0.3271,0.4034,-0.1198,-0.8461,0.0,-nan,0.2
160950,2026-08-29_06-24-15.954-240,v3.5.7,3.50,12.0,400,-1489,-614,7518,-2519,-690,7164,-2847,-951,7141,-2663,-618,7168,0,0,0,184,333,27,381.4,2509.3,-0.006,0.024,1.118,-3.624,-0.625,-3.339,357.5,1,-0.3217,0.4048,-0.1179,-0.8478,0.0,-nan,0.2
160999,2026-08-29_06-24-15.000-240,v3.5.7,3.50,12.0,400,-1515,-625,7517,-2545,-681,7131,-2873,-961,7136,-2689,-609,7135,0,0,0,184,352,-1,397.2,2613.1,-0.005,0.131,1.116,0.902,-0.594,-2.812,370.8,1,-0.3191,0.4045,-0.1205,-0.8485,0.0,-nan,0.2
161029,2026-08-29_06-24-15.031-240,v3.5.7,3.50,12.0,400,-1515,-625,7517,-2546,-689,7153,-2873,-961,7136,-2690,-616,7157,0,0,0,183,345,21,391.1,2573.0,-0.009,0.117,1.115,0.963,-1.375,-3.082,365.7,1,-0.3162,0.4050,-0.1236,-0.8490,0.0,-nan,0.0
161061,2026-08-29_06-24-15.063-240,v3.5.7,3.50,12.0,400,-1496,-615,7517,-2546,-689,7153,-2854,-951,7139,-2690,-616,7157,0,0,0,164,335,18,373.4,2456.7,-0.005,0.112,1.116,3.195,-0.891,-2.747,350.8,1,-0.3148,0.4041,-0.1288,-0.8492,0.0,-nan,0.0
161090,2026-08-29_06-24-15.092-240,v3.5.7,3.50,12.0,400,-1463,-621,7537,-2537,-664,7165,-2825,-959,7164,-2681,-592,7169,0,0,0,144,367,5,394.3,2593.9,0.001,0.125,1.115,3.892,-0.656,-3.041,368.3,1,-0.3134,0.4026,-0.1347,-0.8494,0.0,-nan,0.2
161132,2026-08-29_06-24-15.133-240,v3.5.7,3.50,12.0,400,-1463,-621,7537,-2483,-688,7160,-2825,-959,7164,-2626,-616,7163,0,0,0,199,343,-1,396.5,2608.9,-0.006,0.138,1.118,2.859,-1.266,-2.643,370.2,1,-0.3119,0.4022,-0.1395,-0.8494,0.0,-nan,0.2
161180,2026-08-29_06-24-15.184-240,v3.5.7,3.50,12.0,400,-1431,-613,7536,-2483,-688,7160,-2793,-951,7167,-2626,-616,7163,0,0,0,167,335,-4,374.3,2462.8,-0.002,0.205,1.118,-3.897,-0.422,-3.812,351.6,1,-0.3059,0.4033,-0.1374,-0.8514,0.0,-nan,0.2
161209,2026-08-29_06-24-15.210-240,v3.5.7,3.50,12.0,400,-1406,-597,7543,-2445,-697,7205,-2769,-935,7178,-2588,-625,7207,0,0,0,181,310,29,360.1,2369.4,0.000,0.125,1.121,-5.559,-0.906,-4.441,339.7,1,-0.2982,0.4055,-0.1341,-0.8536,0.0,-nan,0.2
161239,2026-08-29_06-24-15.241-240,v3.5.7,3.50,12.0,400,-1406,-597,7543,-2445,-697,7205,-2769,-935,7178,-2588,-625,7207,0,0,0,181,310,29,360.1,2369.4,-0.005,0.110,1.118,-4.412,-0.766,-3.641,339.7,1,-0.2920,0.4072,-0.1315,-0.8554,0.0,-nan,0.0
161268,2026-08-29_06-24-15.269-240,v3.5.7,3.50,12.0,400,-1436,-624,7540,-2463,-711,7198,-2798,-962,7171,-2606,-639,7201,0,0,0,192,323,30,377.0,2479.9,-0.004,0.124,1.116,-3.024,-0.531,-3.270,353.8,1,-0.2869,0.4082,-0.1301,-0.8568,0.0,-nan,0.2
161309,2026-08-29_06-24-15.311-240,v3.5.7,3.50,12.0,400,-1428,-620,7525,-2443,-686,7181,-2788,-958,7157,-2585,-614,7184,0,0,0,203,344,27,400.3,2633.8,-0.010,0.120,1.112,3.050,-0.625,-1.905,373.4,1,-0.2864,0.4073,-0.1345,-0.8568,0.0,-nan,0.2
161351,2026-08-29_06-24-15.353-240,v3.5.7,3.50,12.0,400,-1407,-619,7546,-2443,-686,7181,-2770,-958,7181,-2585,-614,7184,0,0,0,185,344,3,390.6,2569.8,-0.007,0.185,1.120,-3.229,-0.266,-3.873,365.3,1,-0.2806,0.4079,-0.1331,-0.8586,0.0,-nan,0.0
161395,2026-08-29_06-24-15.399-240,v3.5.7,3.50,12.0,400,-1407,-619,7546,-2424,-689,7176,-2770,-958,7181,-2566,-617,7179,0,0,0,204,341,-2,397.4,2614.3,-0.008,0.172,1.116,-5.013,-0.812,-3.745,370.9,1,-0.2739,0.4097,-0.1299,-0.8604,0.0,-nan,0.2
161425,2026-08-29_06-24-15.427-240,v3.5.7,3.50,12.0,400,-1415,-628,7546,-2455,-699,7173,-2778,-967,7180,-2598,-627,7176,0,0,0,180,340,-4,384.7,2531.1,-0.003,0.192,1.119,-10.372,-0.672,-4.621,360.3,1,-0.2635,0.4131,-0.1214,-0.8633,0.0,-nan,0.2
161469,2026-08-29_06-24-15.471-240,v3.5.7,3.50,12.0,400,-1442,-620,7530,-2455,-699,7173,-2803,-958,7160,-2598,-627,7176,0,0,0,205,331,16,389.7,2563.6,-0.007,0.141,1.114,-17.620,-0.453,-5.488,364.5,1,-0.2484,0.4183,-0.1053,-0.8673,0.0,-nan,0.0
161501,2026-08-29_06-24-16.503-240,v3.5.7,3.50,12.0,400,-1442,-620,7530,-2548,-653,7151,-2803,-958,7160,-2692,-581,7155,0,0,0,111,377,-5,393.0,2585.7,-0.008,0.177,1.113,-24.032,-0.297,-6.874,367.3,1,-0.2283,0.4248,-0.0829,-0.8721,0.0,-nan,0.2
161533,2026-08-29_06-24-16.534-240,v3.5.7,3.50,12.0,400,-1551,-617,7504,-2548,-653,7151,-2906,-952,7118,-2692,-581,7155,0,0,0,214,371,37,429.9,2828.2,0.007,0.007,1.119,-24.319,-0.281,-6.654,398.2,1,-0.2080,0.4310,-0.0599,-0.8760,0.0,-nan,0.2
161562,2026-08-29_06-24-16.564-240,v3.5.7,3.50,12.0,400,-1687,-618,7469,-2660,-683,7103,-3035,-950,7064,-2805,-610,7108,0,0,0,230,340,44,412.8,2716.0,0.000,-0.031,1.105,-9.514,-0.297,-4.322,383.9,1,-0.1981,0.4333,-0.0519,-0.8777,0.0,-nan,0.2
161609,2026-08-29_06-24-16.611-240,v3.5.7,3.50,12.0,400,-1687,-618,7469,-2738,-688,7057,-3035,-950,7064,-2884,-614,7064,0,0,0,151,336,0,368.4,2423.5,-0.015,-0.040,1.111,10.609,-0.609,-1.687,346.6,1,-0.2020,0.4310,-0.0646,-0.8771,0.0,-nan,0.0
161646,2026-08-29_06-24-16.647-240,v3.5.7,3.50,12.0,400,-1716,-617,7475,-2738,-688,7057,-3065,-949,7065,-2884,-614,7064,0,0,0,181,335,-1,380.8,2505.1,0.004,0.139,1.115,16.937,-1.406,-0.758,357.0,1,-0.2102,0.4280,-0.0839,-0.8750,0.0,-nan,0.0
161676,2026-08-29_06-24-16.678-240,v3.5.7,3.50,12.0,400,-1602,-619,7499,-2665,-684,7113,-2956,-953,7106,-2811,-611,7118,0,0,0,145,342,12,371.7,2445.1,0.001,0.210,1.118,8.669,-1.000,-2.172,349.4,1,-0.2124,0.4264,-0.0948,-0.8741,0.0,-nan,0.2
161712,2026-08-29_06-24-16.714-240,v3.5.7,3.50,12.0,400,-1602,-619,7499,-2574,-688,7149,-2956,-953,7106,-2718,-615,7153,0,0,0,238,338,47,416.0,2737.2,-0.000,0.081,1.115,4.141,-0.891,-2.860,386.6,1,-0.2114,0.4258,-0.1011,-0.8740,0.0,-nan,0.2
161763,2026-08-29_06-24-16.764-240,v3.5.7,3.50,12.0,400,-1534,-612,7504,-2574,-688,7149,-2889,-948,7121,-2718,-615,7153,0,0,0,171,333,32,375.7,2471.7,-0.002,0.237,1.117,0.732,-0.875,-3.201,352.8,1,-0.2082,0.4260,-0.1038,-0.8743,0.0,-nan,0.2
161789,2026-08-29_06-24-16.791-240,v3.5.7,3.50,12.0,400,-1508,-621,7543,-2542,-701,7167,-2870,-958,7163,-2686,-628,7171,0,0,0,184,330,8,377.9,2486.3,-0.006,0.176,1.120,-9.879,-0.484,-4.454,354.6,1,-0.1980,0.4283,-0.0955,-0.8765,0.0,-nan,0.2
161823,2026-08-29_06-24-16.824-240,v3.5.7,3.50,12.0,400,-1513,-627,7514,-2542,-701,7167,-2870,-963,7134,-2686,-628,7171,0,0,0,184,335,37,384.0,2526.3,-0.010,-0.041,1.112,-0.872,-0.328,-3.448,359.7,1,-0.1938,0.4283,-0.0964,-0.8773,0.0,-nan,0.2
161869,2026-08-29_06-24-16.872-240,v3.5.7,3.50,12.0,400,-1513,-627,7514,-2545,-685,7148,-2870,-963,7134,-2689,-612,7152,0,0,0,181,351,18,395.3,2600.9,-0.009,0.136,1.113,20.673,-0.750,0.026,369.2,1,-0.2048,0.4238,-0.1192,-0.8742,0.0,-nan,0.2
161898,2026-08-29_06-24-16.899-240,v3.5.7,3.50,12.0,400,-1472,-627,7523,-2485,-666,7187,-2831,-964,7149,-2628,-594,7190,0,0,0,203,370,41,424.0,2789.6,-0.012,0.366,1.123,4.093,-1.141,-2.129,393.3,1,-0.2045,0.4236,-0.1251,-0.8736,0.0,-nan,0.2
161942,2026-08-29_06-24-16.944-240,v3.5.7,3.50,12.0,400,-1385,-619,7546,-2485,-666,7187,-2749,-958,7184,-2628,-594,7190,0,0,0,121,364,6,383.6,2523.9,-0.002,0.048,1.115,-5.793,-0.500,-4.377,359.4,1,-0.1966,0.4247,-0.1212,-0.8754,0.0,-nan,0.2
161978,2026-08-29_06-24-16.979-240,v3.5.7,3.50,12.0,400,-1385,-619,7546,-2431,-686,7173,-2749,-958,7184,-2573,-614,7176,0,0,0,176,344,-8,386.5,2542.7,-0.011,0.083,1.120,3.887,-1.172,-2.767,361.8,1,-0.1955,0.4245,-0.1272,-0.8749,0.0,-nan,0.2
162006,2026-08-29_06-24-16.007-240,v3.5.7,3.50,12.0,400,-1408,-624,7528,-2426,-691,7191,-2768,-962,7163,-2568,-619,7194,0,0,0,200,343,31,398.3,2620.1,-0.005,0.146,1.113,6.993,-1.219,-2.107,371.7,1,-0.1967,0.4236,-0.1363,-0.8737,0.0,-nan,0.2
162052,2026-08-29_06-24-16.054-240,v3.5.7,3.50,12.0,400,-1359,-616,7550,-2426,-691,7191,-2724,-956,7192,-2568,-619,7194,0,0,0,156,337,2,371.4,2443.2,0.006,0.192,1.112,1.218,-0.797,-2.796,349.1,1,-0.1942,0.4236,-0.1393,-0.8738,0.0,-nan,0.2
162080,2026-08-29_06-24-16.084-240,v3.5.7,3.50,12.0,400,-1359,-616,7550,-2378,-684,7204,-2724,-956,7192,-2520,-612,7206,0,0,0,204,344,14,400.2,2632.8,0.002,0.244,1.122,-6.916,-0.703,-4.198,373.3,1,-0.1858,0.4251,-0.1341,-0.8757,0.0,-nan,0.2
162118,2026-08-29_06-24-16.119-240,v3.5.7,3.50,12.0,400,-1331,-647,7579,-2378,-684,7204,-2700,-988,7224,-2520,-612,7206,0,0,0,180,376,-18,417.3,2745.1,-0.004,0.034,1.114,-4.771,-0.312,-4.733,387.6,1,-0.1781,0.4256,-0.1314,-0.8774,0.0,-nan,0.2
162146,2026-08-29_06-24-16.148-240,v3.5.7,3.50,12.0,400,-1352,-620,7549,-2402,-691,7191,-2716,-960,7192,-2544,-619,7193,0,0,0,172,341,1,381.9,2512.7,0.000,0.181,1.114,1.182,-0.781,-3.046,358.0,1,-0.1753,0.4256,-0.1345,-0.8775,0.0,-nan,0.2
162184,2026-08-29_06-24-16.185-240,v3.5.7,3.50,12.0,400,-1352,-620,7549,-2401,-694,7204,-2716,-960,7192,-2543,-622,7206,0,0,0,173,338,14,380.0,2499.7,-0.029,0.117,1.131,1.655,-0.625,-3.102,356.3,1,-0.1727,0.4252,-0.1381,-0.8777,0.0,-nan,0.2
162233,2026-08-29_06-24-16.234-240,v3.5.7,3.50,12.0,400,-1367,-623,7551,-2401,-694,7204,-2732,-962,7192,-2543,-622,7206,0,0,0,189,340,14,389.3,2560.9,-0.004,0.176,1.114,-2.621,-0.391,-4.134,364.1,1,-0.1667,0.4253,-0.1375,-0.8789,0.0,-nan,0.2
162263,2026-08-29_06-24-16.264-240,v3.5.7,3.50,12.0,400,-1325,-614,7548,-2381,-699,7223,-2690,-954,7195,-2523,-627,7225,0,0,0,167,327,30,368.4,2423.7,-0.012,0.104,1.117,-2.597,-0.562,-4.310,346.6,1,-0.1605,0.4256,-0.1370,-0.8799,0.0,-nan,0.2
162293,2026-08-29_06-24-16.295-240,v3.5.7,3.50,12.0,400,-1325,-614,7548,-2381,-699,7223,-2690,-954,7195,-2523,-627,7225,0,0,0,167,327,30,368.4,2423.7,-0.009,0.155,1.127,2.744,-0.578,-3.028,346.6,1,-0.1586,0.4250,-0.1417,-0.8798,0.0,-nan,0.2
162323,2026-08-29_06-24-16.324-240,v3.5.7,3.50,12.0,400,-1333,-622,7559,-2408,-673,7216,-2699,-962,7204,-2550,-601,7218,0,0,0,149,361,14,390.8,2571.0,-0.015,0.133,1.117,0.672,-0.828,-3.492,365.4,1,-0.1550,0.4250,-0.1445,-0.8800,0.0,-nan,0.2
162352,2026-08-29_06-24-16.354-240,v3.5.7,3.50,12.0,400,-1310,-629,7562,-2408,-673,7216,-2677,-970,7211,-2550,-601,7218,0,0,0,127,369,7,390.3,2567.8,-0.013,0.143,1.116,-1.016,-1.188,-3.509,365.0,1,-0.1504,0.4258,-0.1454,-0.8803,0.0,-nan,0.0
162399,2026-08-29_06-24-16.401-240,v3.5.7,3.50,12.0,400,-1310,-629,7562,-2340,-696,7215,-2677,-970,7211,-2481,-625,7217,0,0,0,196,345,6,396.8,2610.7,0.000,0.130,1.112,2.902,-0.578,-2.505,370.5,1,-0.1491,0.4253,-0.1501,-0.8800,0.0,-nan,0.2
162425,2026-08-29_06-24-16.426-240,v3.5.7,3.50,12.0,400,-1293,-625,7564,-2333,-694,7224,-2660,-966,7215,-2474,-623,7225,0,0,0,186,343,10,390.3,2567.9,0.001,0.160,1.111,1.744,-0.953,-3.479,365.0,1,-0.1461,0.4252,-0.1540,-0.8799,0.0,-nan,0.2
162463,2026-08-29_06-24-16.464-240,v3.5.7,3.50,12.0,400,-1266,-626,7561,-2333,-694,7224,-2633,-967,7216,-2474,-623,7225,0,0,0,159,344,9,379.1,2493.9,-0.008,0.191,1.118,-3.990,-0.656,-2.911,355.6,1,-0.1407,0.4259,-0.1513,-0.8809,0.0,-nan,0.2
162503,2026-08-29_06-24-17.504-240,v3.5.7,3.50,12.0,400,-1266,-626,7561,-2311,-700,7228,-2633,-967,7216,-2452,-629,7229,0,0,0,181,338,13,383.6,2523.9,-0.003,0.114,1.117,-3.769,-0.969,-3.778,359.4,1,-0.1344,0.4268,-0.1493,-0.8818,0.0,-nan,0.2
162551,2026-08-29_06-24-17.552-240,v3.5.7,3.50,12.0,400,-1271,-630,7561,-2326,-698,7221,-2638,-971,7216,-2467,-627,7222,0,0,0,171,344,6,384.2,2527.7,-0.012,0.214,1.100,-5.663,-1.219,-3.496,359.9,1,-0.1273,0.4283,-0.1451,-0.8828,0.0,-nan,0.2
162584,2026-08-29_06-24-17.588-240,v3.5.7,3.50,12.0,400,-1276,-611,7562,-2326,-698,7221,-2643,-952,7216,-2467,-627,7222,0,0,0,176,325,6,369.6,2431.9,0.001,0.151,1.111,-7.055,0.234,-4.407,347.7,1,-0.1187,0.4282,-0.1396,-0.8849,0.0,-nan,0.2
162614,2026-08-29_06-24-17.615-240,v3.5.7,3.50,12.0,400,-1311,-623,7558,-2346,-688,7218,-2677,-964,7207,-2487,-617,7220,0,0,0,190,347,13,395.8,2604.1,-0.013,0.126,1.128,-3.345,-0.719,-3.824,369.6,1,-0.1126,0.4286,-0.1380,-0.8857,0.0,-nan,0.2
162663,2026-08-29_06-24-17.664-240,v3.5.7,3.50,12.0,400,-1311,-623,7558,-2362,-684,7205,-2677,-964,7207,-2503,-613,7207,0,0,0,174,351,0,391.8,2577.4,0.079,0.062,1.051,-8.486,-4.469,-15.073,366.2,1,-0.0906,0.4319,-0.1373,-0.8868,0.0,-nan,0.2
162698,2026-08-29_06-24-17.700-240,v3.5.7,3.50,12.0,400,-1326,-623,7554,-2362,-684,7205,-2691,-963,7201,-2503,-613,7207,0,0,0,188,350,6,397.3,2614.1,0.065,0.171,1.139,-7.190,-6.438,-20.891,370.9,1,-0.0624,0.4360,-0.1412,-0.8866,0.0,-nan,0.2
162729,2026-08-29_06-24-17.731-240,v3.5.7,3.50,12.0,400,-1339,-709,7558,-2401,-721,7277,-2705,-1050,7203,-2543,-649,7278,0,0,0,162,401,75,438.9,2887.8,0.044,0.005,1.141,-8.509,-10.969,-26.769,405.8,1,-0.0262,0.4436,-0.1471,-0.8837,0.0,-nan,0.0
162766,2026-08-29_06-24-17.768-240,v3.5.7,3.50,12.0,400,-1339,-709,7558,-2432,-889,7275,-2705,-1050,7203,-2574,-816,7276,0,0,0,131,234,73,277.9,1828.5,-0.034,0.011,1.127,15.644,-17.078,-28.716,270.7,1,-0.0000,0.4561,-0.1807,-0.8714,0.0,-nan,0.2
162815,2026-08-29_06-24-17.819-240,v3.5.7,3.50,12.0,400,-1315,-873,7536,-2432,-889,7275,-2676,-1214,7186,-2574,-816,7276,0,0,0,102,398,90,420.6,2767.1,0.028,0.524,1.125,-10.426,-25.031,-42.965,390.4,1,0.0582,0.4726,-0.1934,-0.8578,0.0,-nan,0.2
162845,2026-08-29_06-24-17.847-240,v3.5.7,3.50,12.0,400,-1169,-1060,7481,-2277,-1102,7272,-2522,-1404,7156,-2414,-1029,7271,0,0,0,108,375,115,406.8,2676.5,0.084,0.093,1.111,-15.995,-28.344,-57.954,378.9,1,0.1362,0.4860,-0.2077,-0.8379,0.0,-nan,0.2
162873,2026-08-29_06-24-17.875-240,v3.5.7,3.50,12.0,400,-1169,-1060,7481,-2277,-1102,7272,-2522,-1404,7156,-2414,-1029,7271,0,0,0,108,375,115,406.8,2676.5,0.073,0.195,1.070,-26.163,-28.453,-72.472,378.9,1,0.2342,0.4899,-0.2183,-0.8109,0.0,-nan,0.2
162904,2026-08-29_06-24-17.905-240,v3.5.7,3.50,12.0,400,-1144,-1396,7412,-2275,-1447,7228,-2484,-1740,7094,-2409,-1372,7226,0,0,0,75,368,132,398.1,2619.0,0.002,-0.206,1.059,-43.759,-26.984,-80.481,371.5,1,0.3475,0.4789,-0.2138,-0.7773,0.0,-nan,0.2
162931,2026-08-29_06-24-17.933-240,v3.5.7,3.50,12.0,400,-1240,-1654,7327,-2275,-1447,7228,-2563,-1996,6998,-2409,-1372,7226,0,0,0,154,624,228,682.0,4486.6,-0.008,0.413,1.123,-56.832,-28.344,-93.123,609.8,1,0.4749,0.4523,-0.2000,-0.7279,0.0,-nan,0.2
162977,2026-08-29_06-24-17.979-240,v3.5.7,3.50,12.0,400,-1240,-1654,7327,-2392,-1780,7098,-2563,-1996,6998,-2525,-1704,7097,0,0,0,38,292,99,310.7,2043.8,0.279,0.207,1.136,-34.070,-19.094,-96.918,298.2,1,0.5822,0.4215,-0.2106,-0.6626,0.0,-nan,0.2
163008,2026-08-29_06-24-17.010-240,v3.5.7,3.50,12.0,400,-1379,-1964,7198,-2526,-2128,6976,-2678,-2302,6854,-2657,-2049,6976,0,0,0,21,253,122,281.7,1853.0,0.199,0.158,1.019,-50.098,-15.984,-105.147,273.8,1,0.6925,0.3666,-0.2106,-0.5846,0.0,-nan,0.2
163047,2026-08-29_06-24-17.048-240,v3.5.7,3.50,12.0,400,-1446,-2246,7102,-2526,-2128,6976,-2727,-2583,6752,-2657,-2049,6976,0,0,0,70,534,224,583.3,3837.5,0.070,-0.181,1.075,-42.911,-2.188,-123.605,527.0,1,0.7926,0.2945,-0.2308,-0.4815,0.0,-nan,0.2
163085,2026-08-29_06-24-17.089-240,v3.5.7,3.50,12.0,400,-1446,-2246,7102,-2603,-2412,6857,-2727,-2583,6752,-2733,-2332,6857,0,0,0,-6,251,105,272.1,1790.4,0.075,-0.130,1.045,-11.780,-3.625,-125.466,265.8,1,0.8629,0.2456,-0.2629,-0.3549,0.0,-nan,0.2
163132,2026-08-29_06-24-17.134-240,v3.5.7,3.50,12.0,400,-1434,-2492,7024,-2466,-2703,6841,-2701,-2828,6679,-2591,-2623,6839,0,0,0,110,205,160,282.4,1857.6,0.133,0.131,1.111,-7.151,0.688,-130.448,274.4,1,0.9107,0.1921,-0.2965,-0.2139,0.0,-nan,0.2
163169,2026-08-29_06-24-17.171-240,v3.5.7,3.50,12.0,400,-1191,-2714,7001,-2466,-2703,6841,-2455,-3055,6694,-2591,-2623,6839,0,0,0,-136,432,145,475.5,3128.6,-0.063,0.292,1.105,-27.345,-0.797,-139.519,436.5,1,0.9402,0.1077,-0.3167,-0.0640,0.0,-nan,0.0
163197,2026-08-29_06-24-17.199-240,v3.5.7,3.50,12.0,400,-967,-2909,6937,-2169,-2978,6848,-2222,-3253,6666,-2287,-2899,6842,0,0,0,-65,354,176,400.6,2635.8,0.031,-0.053,1.108,-31.418,3.297,-144.854,373.7,1,0.9388,0.0129,-0.3317,0.0918,0.0,-nan,0.2
163242,2026-08-29_06-24-17.244-240,v3.5.7,3.50,12.0,400,-967,-2909,6937,-1928,-3179,6821,-2222,-3253,6666,-2040,-3100,6813,0,0,0,182,153,147,279.5,1839.1,0.227,0.062,1.017,-20.455,5.609,-143.461,272.0,1,0.9056,-0.0688,-0.3373,0.2476,0.0,-nan,0.2
163286,2026-08-29_06-24-17.287-240,v3.5.7,3.50,12.0,400,-757,-3070,6871,-1928,-3179,6821,-2002,-3417,6634,-2040,-3100,6813,0,0,0,-38,317,179,366.0,2408.1,0.484,0.419,1.131,-35.448,4.172,-140.867,344.6,1,0.8435,-0.1643,-0.3352,0.3863,0.0,-nan,0.0
163315,2026-08-29_06-24-17.319-240,v3.5.7,3.50,12.0,400,-369,-3218,6830,-1615,-3360,6818,-1609,-3571,6653,-1721,-3283,6807,0,0,0,-112,288,154,345.3,2271.4,0.542,-0.089,1.045,-13.614,0.516,-148.205,327.2,1,0.7559,-0.2364,-0.3064,0.5280,0.0,-nan,0.2
163345,2026-08-29_06-24-17.346-240,v3.5.7,3.50,12.0,400,-369,-3218,6830,-1615,-3360,6818,-1609,-3571,6653,-1721,-3283,6807,0,0,0,-112,288,154,345.3,2271.4,0.254,0.231,1.073,-12.122,4.703,-144.465,327.2,1,0.6447,-0.2952,-0.2716,0.6507,0.0,-nan,0.2
163373,2026-08-29_06-24-17.374-240,v3.5.7,3.50,12.0,400,-142,-3331,6844,-1275,-3452,6862,-1386,-3688,6701,-1375,-3377,6847,0,0,0,11,311,146,343.7,2261.5,0.229,0.178,1.065,-20.332,3.609,-143.154,325.9,1,0.5113,-0.3515,-0.2342,0.7485,0.0,-nan,0.2
163403,2026-08-29_06-24-17.404-240,v3.5.7,3.50,12.0,400,186,-3390,6717,-1275,-3452,6862,-1039,-3750,6626,-1375,-3377,6847,0,0,0,-336,373,221,548.5,3608.6,0.136,0.159,1.056,-21.279,5.359,-136.544,497.8,1,0.3671,-0.3941,-0.1946,0.8198,0.0,-nan,0.2
163453,2026-08-29_06-24-17.455-240,v3.5.7,3.50,12.0,400,186,-3390,6717,-923,-3603,6859,-1039,-3750,6626,-1016,-3530,6840,0,0,0,23,220,214,307.8,2024.8,0.101,0.108,1.119,-23.306,3.797,-125.866,295.7,1,0.2229,-0.4260,-0.1561,0.8628,0.0,-nan,0.2
163482,2026-08-29_06-24-18.484-240,v3.5.7,3.50,12.0,400,413,-3448,6648,-632,-3641,6840,-802,-3810,6593,-720,-3570,6819,0,0,0,82,240,226,339.7,2234.9,0.209,0.170,1.129,-20.542,3.375,-113.768,322.5,1,0.0877,-0.4455,-0.1173,0.8832,0.0,-nan,0.2
163519,2026-08-29_06-24-18.521-240,v3.5.7,3.50,12.0,400,665,-3460,6611,-632,-3641,6840,-546,-3825,6594,-720,-3570,6819,0,0,0,-174,255,225,382.0,2513.2,0.166,0.165,0.935,-30.152,8.984,-105.694,358.0,1,-0.0467,-0.4500,-0.0918,0.8871,0.0,-nan,0.2
163556,2026-08-29_06-24-18.558-240,v3.5.7,3.50,12.0,400,665,-3460,6611,-447,-3611,6850,-546,-3825,6594,-532,-3541,6828,0,0,0,14,284,234,368.2,2422.7,0.058,0.036,1.165,-17.587,11.969,-88.212,346.5,1,-0.1548,-0.4428,-0.0605,0.8811,0.0,-nan,0.2
163585,2026-08-29_06-24-18.588-240,v3.5.7,3.50,12.0,400,814,-3418,6583,-264,-3589,6885,-394,-3784,6589,-346,-3521,6861,0,0,0,48,263,272,381.4,2509.1,0.030,0.195,1.175,-20.664,13.453,-80.698,357.5,1,-0.2548,-0.4275,-0.0358,0.8666,0.0,-nan,0.2
163632,2026-08-29_06-24-18.633-240,v3.5.7,3.50,12.0,400,974,-3331,6577,-264,-3589,6885,-235,-3699,6606,-346,-3521,6861,0,0,0,-111,178,255,330.2,2172.3,-0.040,0.088,1.172,-23.475,16.328,-63.379,314.6,1,-0.3355,-0.4035,-0.0221,0.8510,0.0,-nan,0.2
163665,2026-08-29_06-24-18.669-240,v3.5.7,3.50,12.0,400,974,-3331,6577,-179,-3471,6950,-235,-3699,6606,-261,-3404,6925,0,0,0,-26,295,319,435.3,2863.6,0.023,0.237,1.086,-28.081,14.250,-55.920,402.7,1,-0.4083,-0.3767,-0.0177,0.8313,0.0,-nan,0.2
163696,2026-08-29_06-24-18.697-240,v3.5.7,3.50,12.0,400,1052,-3197,6618,-179,-3471,6950,-165,-3567,6657,-261,-3404,6925,0,0,0,-96,163,268,328.0,2158.1,0.109,0.088,1.000,-35.996,13.078,-43.285,312.8,1,-0.4693,-0.3446,-0.0280,0.8125,0.0,-nan,0.2
163739,2026-08-29_06-24-18.741-240,v3.5.7,3.50,12.0,400,987,-3067,6636,-184,-3361,6967,-233,-3435,6664,-267,-3294,6942,0,0,0,-34,141,278,313.6,2062.9,-0.005,-0.040,1.161,-21.918,10.172,-23.682,300.6,1,-0.5027,-0.3218,-0.0341,0.8016,0.0,-nan,0.0
163768,2026-08-29_06-24-18.769-240,v3.5.7,3.50,12.0,400,987,-3067,6636,-268,-3255,6944,-233,-3435,6664,-353,-3188,6921,0,0,0,-120,247,257,376.1,2474.4,-0.002,0.013,1.115,-15.005,6.578,-13.240,353.1,1,-0.5221,-0.3060,-0.0397,0.7951,0.0,-nan,0.2
163813,2026-08-29_06-24-18.815-240,v3.5.7,3.50,12.0,400,907,-2991,6644,-268,-3255,6944,-314,-3358,6659,-353,-3188,6921,0,0,0,-39,170,262,314.7,2070.7,-0.034,0.049,1.136,2.241,1.297,1.539,301.6,1,-0.5198,-0.3059,-0.0372,0.7968,0.0,-nan,0.2
163842,2026-08-29_06-24-18.843-240,v3.5.7,3.50,12.0,400,899,-2997,6658,-293,-3208,6939,-324,-3364,6672,-379,-3141,6916,0,0,0,-55,223,244,335.1,2204.6,0.014,0.123,1.125,-4.627,-0.391,2.455,318.7,1,-0.5192,-0.3030,-0.0430,0.7980,0.0,-nan,0.2
163875,2026-08-29_06-24-18.878-240,v3.5.7,3.50,12.0,400,899,-2997,6658,-293,-3208,6939,-324,-3364,6672,-379,-3141,6916,0,0,0,-55,223,244,335.1,2204.6,0.032,-0.033,1.091,-6.234,-0.016,1.109,318.7,1,-0.5204,-0.2986,-0.0497,0.7984,0.0,-nan,0.2
163929,2026-08-29_06-24-18.930-240,v3.5.7,3.50,12.0,400,859,-2958,6646,-312,-3185,6935,-362,-3324,6654,-399,-3118,6912,0,0,0,-37,206,258,332.2,2185.6,0.049,0.022,1.106,-4.181,-0.875,-2.836,316.3,1,-0.5248,-0.2968,-0.0534,0.7961,0.0,-nan,0.0
163959,2026-08-29_06-24-18.961-240,v3.5.7,3.50,12.0,400,806,-2947,6646,-358,-3190,6955,-415,-3312,6646,-445,-3123,6933,0,0,0,-30,189,287,344.9,2269.4,0.025,0.051,1.130,-3.852,4.109,-2.828,326.9,1,-0.5293,-0.2901,-0.0535,0.7955,0.0,-nan,0.0
163985,2026-08-29_06-24-18.987-240,v3.5.7,3.50,12.0,400,822,-2926,6671,-358,-3190,6955,-403,-3292,6673,-445,-3123,6933,0,0,0,-42,169,260,312.9,2058.7,0.027,0.002,1.119,-6.223,4.812,-5.122,300.1,1,-0.5369,-0.2813,-0.0546,0.7935,0.0,-nan,0.2
164033,2026-08-29_06-24-18.035-240,v3.5.7,3.50,12.0,400,822,-2926,6671,-347,-3185,6933,-403,-3292,6673,-434,-3118,6911,0,0,0,-31,174,238,296.4,1950.3,-0.156,0.031,1.149,-4.814,-0.641,-9.056,286.2,1,-0.5475,-0.2791,-0.0566,0.7868,0.0,-nan,0.2
164060,2026-08-29_06-24-18.062-240,v3.5.7,3.50,12.0,400,822,-2887,6636,-358,-3151,6888,-397,-3252,6638,-445,-3084,6867,0,0,0,-48,168,229,288.0,1895.0,-0.055,0.007,1.141,-6.572,0.922,-11.415,279.2,1,-0.5611,-0.2743,-0.0585,0.7788,0.0,-nan,0.2
164103,2026-08-29_06-24-18.104-240,v3.5.7,3.50,12.0,400,841,-2901,6624,-358,-3151,6888,-377,-3266,6629,-445,-3084,6867,0,0,0,-68,182,238,307.2,2021.3,0.074,0.089,1.072,-3.347,5.656,-6.421,295.3,1,-0.5689,-0.2667,-0.0556,0.7760,0.0,-nan,0.2
164136,2026-08-29_06-24-18.138-240,v3.5.7,3.50,12.0,400,841,-2901,6624,-322,-3108,6833,-377,-3266,6629,-409,-3042,6812,0,0,0,-32,224,183,291.0,1914.6,0.153,0.015,1.051,-8.442,4.641,-6.403,281.7,1,-0.5782,-0.2564,-0.0584,0.7724,0.0,-nan,0.2
164164,2026-08-29_06-24-18.165-240,v3.5.7,3.50,12.0,400,883,-2833,6610,-322,-3108,6833,-333,-3198,6621,-409,-3042,6812,0,0,0,-76,156,191,258.1,1697.7,0.257,-0.052,1.067,3.368,0.828,-1.385,254.0,1,-0.5785,-0.2579,-0.0542,0.7720,0.0,-nan,0.2
164193,2026-08-29_06-24-18.194-240,v3.5.7,3.50,12.0,400,883,-2833,6610,-309,-3057,6759,-333,-3198,6621,-395,-2991,6739,0,0,0,-62,207,118,246.2,1619.8,0.216,0.042,1.074,0.797,1.094,-1.994,244.1,1,-0.5802,-0.2573,-0.0520,0.7710,0.0,-nan,0.2
164220,2026-08-29_06-24-18.223-240,v3.5.7,3.50,12.0,400,867,-2847,6579,-309,-3057,6759,-343,-3211,6589,-395,-2991,6739,0,0,0,-52,220,150,271.3,1784.9,0.161,-0.034,1.088,1.411,1.297,-2.493,265.1,1,-0.5823,-0.2570,-0.0490,0.7697,0.0,-nan,0.2
164250,2026-08-29_06-24-18.254-240,v3.5.7,3.50,12.0,400,888,-2828,6586,-276,-3053,6750,-324,-3192,6599,-361,-2988,6730,0,0,0,-37,204,131,245.2,1613.5,0.120,0.069,1.097,1.371,0.781,-2.812,243.3,1,-0.5846,-0.2572,-0.0462,0.7681,0.0,-nan,0.2
164294,2026-08-29_06-24-18.295-240,v3.5.7,3.50,12.0,400,888,-2828,6586,-265,-3050,6747,-324,-3192,6599,-350,-2985,6727,0,0,0,-26,207,128,244.8,1610.3,-0.022,-0.014,1.116,0.976,-2.875,-3.216,242.9,1,-0.5872,-0.2607,-0.0464,0.7649,0.0,-nan,0.2
164344,2026-08-29_06-24-18.345-240,v3.5.7,3.51,12.0,400,913,-2832,6580,-265,-3050,6747,-298,-3196,6596,-350,-2985,6727,0,0,0,-52,211,131,253.7,1669.4,-0.083,-0.015,1.133,1.126,-0.828,-2.707,250.4,1,-0.5894,-0.2622,-0.0451,0.7628,0.0,-nan,0.0
164399,2026-08-29_06-24-18.401-240,v3.5.7,3.51,12.0,400,943,-2832,6574,-263,-3050,6717,-267,-3197,6595,-348,-2985,6697,0,0,0,-81,212,102,248.8,1636.9,-0.056,0.002,1.130,0.147,-0.406,-3.621,246.3,1,-0.5928,-0.2627,-0.0440,0.7600,0.0,-nan,0.0
164426,2026-08-29_06-24-18.428-240,v3.5.7,3.51,12.0,400,938,-2826,6569,-212,-3044,6742,-272,-3190,6589,-296,-2979,6721,0,0,0,-24,211,132,250.0,1645.0,-0.049,0.068,1.132,0.922,-0.859,-2.715,247.3,1,-0.5950,-0.2642,-0.0429,0.7578,0.0,-nan,0.2
164455,2026-08-29_06-24-18.459-240,v3.5.7,3.51,12.0,400,938,-2826,6569,-212,-3044,6742,-272,-3190,6589,-296,-2979,6721,0,0,0,-24,211,132,250.0,1645.0,-0.041,0.021,1.131,-0.868,-0.797,-2.566,247.3,1,-0.5977,-0.2642,-0.0435,0.7557,0.0,-nan,0.2
164488,2026-08-29_06-24-19.489-240,v3.5.7,3.51,12.0,400,963,-2823,6556,-193,-3062,6734,-245,-3187,6580,-277,-2997,6713,0,0,0,-32,190,133,234.1,1540.3,0.015,0.070,1.111,-1.296,-1.406,-2.463,233.9,1,-0.6004,-0.2645,-0.0450,0.7533,0.0,-nan,0.2
164516,2026-08-29_06-24-19.517-240,v3.5.7,3.51,12.0,400,967,-2823,6584,-193,-3062,6734,-245,-3188,6608,-277,-2997,6713,0,0,0,-32,191,105,220.3,1449.3,0.022,-0.018,1.111,-3.125,-1.047,-3.663,222.3,1,-0.6049,-0.2631,-0.0475,0.7501,0.0,-nan,0.2
164559,2026-08-29_06-24-19.561-240,v3.5.7,3.51,12.0,400,967,-2823,6584,-211,-3051,6722,-245,-3188,6608,-295,-2986,6702,0,0,0,-50,202,94,228.3,1502.2,-0.005,0.045,1.117,1.367,0.438,-5.570,229.1,1,-0.6097,-0.2638,-0.0441,0.7462,0.0,-nan,0.2
164585,2026-08-29_06-24-19.586-240,v3.5.7,3.51,12.0,400,972,-2823,6568,-194,-3052,6732,-238,-3188,6593,-278,-2987,6711,0,0,0,-40,201,118,236.5,1555.8,-0.003,0.017,1.126,-1.261,0.469,-4.090,235.9,1,-0.6139,-0.2624,-0.0436,0.7432,0.0,-nan,0.2
164632,2026-08-29_06-24-19.633-240,v3.5.7,3.51,12.0,400,966,-2836,6567,-194,-3052,6732,-243,-3201,6592,-278,-2987,6711,0,0,0,-35,214,119,247.3,1627.3,0.034,0.038,1.110,-2.875,-0.875,-3.573,245.0,1,-0.6182,-0.2610,-0.0458,0.7400,0.0,-nan,0.2
164665,2026-08-29_06-24-19.668-240,v3.5.7,3.51,12.0,400,966,-2836,6567,-193,-3051,6743,-243,-3201,6592,-277,-2986,6722,0,0,0,-34,215,130,253.5,1668.0,0.012,0.007,1.116,-1.790,0.109,-3.225,250.2,1,-0.6217,-0.2595,-0.0464,0.7375,0.0,-nan,0.2
164694,2026-08-29_06-24-19.695-240,v3.5.7,3.51,12.0,400,955,-2828,6564,-193,-3051,6743,-254,-3193,6587,-277,-2986,6722,0,0,0,-23,207,135,248.2,1632.9,0.005,0.058,1.117,0.107,-0.453,-2.877,245.7,1,-0.6244,-0.2599,-0.0457,0.7352,0.0,-nan,0.2
164722,2026-08-29_06-24-19.723-240,v3.5.7,3.51,12.0,400,975,-2825,6556,-192,-3053,6730,-233,-3190,6582,-276,-2989,6709,0,0,0,-43,201,127,241.6,1589.6,-0.004,0.027,1.117,-1.368,-0.469,-3.089,240.2,1,-0.6276,-0.2593,-0.0463,0.7326,0.0,-nan,0.2
164769,2026-08-29_06-24-19.771-240,v3.5.7,3.51,12.0,400,975,-2825,6556,-197,-3022,6728,-233,-3190,6582,-281,-2958,6708,0,0,0,-48,232,126,268.3,1765.4,0.021,0.042,1.112,-4.615,-0.500,-3.524,262.6,1,-0.6323,-0.2561,-0.0499,0.7294,0.0,-nan,0.2
164808,2026-08-29_06-24-19.809-240,v3.5.7,3.51,12.0,400,974,-2822,6566,-197,-3022,6728,-235,-3187,6592,-281,-2958,6708,0,0,0,-46,229,116,260.8,1715.7,-0.006,0.028,1.119,-0.004,-0.219,-1.694,256.3,1,-0.6339,-0.2562,-0.0495,0.7281,0.0,-nan,0.2
164838,2026-08-29_06-24-19.840-240,v3.5.7,3.51,12.0,400,974,-2832,6561,-197,-3064,6727,-234,-3197,6587,-281,-2999,6706,0,0,0,-47,198,119,235.7,1550.9,-0.006,0.069,1.117,-1.442,-0.719,-3.155,235.3,1,-0.6372,-0.2557,-0.0504,0.7253,0.0,-nan,0.2
164878,2026-08-29_06-24-19.879-240,v3.5.7,3.51,12.0,400,974,-2832,6561,-196,-3053,6719,-234,-3197,6587,-280,-2989,6698,0,0,0,-46,208,111,240.2,1580.3,0.026,0.010,1.112,-0.771,-0.719,-2.929,239.0,1,-0.6401,-0.2557,-0.0508,0.7228,0.0,-nan,0.2
164921,2026-08-29_06-24-19.923-240,v3.5.7,3.51,12.0,400,977,-2826,6546,-196,-3053,6719,-229,-3190,6573,-280,-2989,6698,0,0,0,-51,201,125,242.1,1593.0,-0.000,0.033,1.115,0.949,-1.000,-4.012,240.7,1,-0.6433,-0.2574,-0.0494,0.7193,0.0,-nan,0.2
164963,2026-08-29_06-24-19.964-240,v3.5.7,3.51,12.0,400,988,-2820,6536,-177,-3055,6729,-216,-3184,6564,-261,-2991,6708,0,0,0,-45,193,144,245.0,1611.6,0.011,0.071,1.110,0.245,-0.156,-2.451,243.0,1,-0.6455,-0.2576,-0.0486,0.7174,0.0,-nan,0.2
164992,2026-08-29_06-24-19.993-240,v3.5.7,3.51,12.0,400,1001,-2826,6533,-142,-3063,6713,-203,-3190,6564,-225,-2999,6692,0,0,0,-22,191,128,231.0,1519.6,0.000,0.034,1.115,0.532,-0.109,-4.204,231.3,1,-0.6491,-0.2582,-0.0469,0.7140,0.0,-nan,0.2
165042,2026-08-29_06-24-19.043-240,v3.5.7,3.51,12.0,400,1035,-2824,6556,-142,-3063,6713,-173,-3190,6591,-225,-2999,6692,0,0,0,-52,191,101,222.2,1462.0,0.011,-0.029,1.115,2.937,0.219,-3.662,224.0,1,-0.6514,-0.2604,-0.0429,0.7113,0.0,-nan,0.2
165088,2026-08-29_06-24-19.089-240,v3.5.7,3.51,12.0,400,1035,-2824,6556,-131,-3060,6723,-173,-3190,6591,-214,-2996,6702,0,0,0,-41,194,111,227.2,1495.0,0.016,0.111,1.106,7.749,-0.375,-1.984,228.2,1,-0.6506,-0.2669,-0.0357,0.7100,0.0,-nan,0.2
165118,2026-08-29_06-24-19.119-240,v3.5.7,3.51,12.0,400,1077,-2828,6520,-80,-3065,6727,-125,-3193,6562,-162,-3001,6705,0,0,0,-37,192,143,242.2,1593.7,0.020,0.102,1.130,3.540,-0.188,-1.431,240.7,1,-0.6507,-0.2698,-0.0323,0.7090,0.0,-nan,0.2
165159,2026-08-29_06-24-19.161-240,v3.5.7,3.51,12.0,400,1122,-2820,6522,-80,-3065,6727,-81,-3186,6571,-162,-3001,6705,0,0,0,-81,185,134,242.4,1594.5,-0.005,0.093,1.119,-1.171,-0.641,-2.716,240.9,1,-0.6535,-0.2693,-0.0329,0.7066,0.0,-nan,0.0
165193,2026-08-29_06-24-19.194-240,v3.5.7,3.51,12.0,400,1122,-2820,6522,-57,-3032,6725,-81,-3186,6571,-139,-2969,6703,0,0,0,-58,217,132,260.5,1714.0,0.005,0.048,1.117,-1.688,-0.719,-3.392,256.1,1,-0.6571,-0.2685,-0.0339,0.7036,0.0,-nan,0.2
165220,2026-08-29_06-24-19.223-240,v3.5.7,3.51,12.0,400,1135,-2822,6528,-39,-3060,6720,-69,-3188,6579,-120,-2997,6698,0,0,0,-51,191,119,230.7,1518.1,0.000,0.021,1.115,2.097,-0.344,-3.899,231.1,1,-0.6598,-0.2705,-0.0311,0.7004,0.0,-nan,0.2
165273,2026-08-29_06-24-19.275-240,v3.5.7,3.51,12.0,400,1147,-2833,6524,-39,-3060,6720,-57,-3200,6577,-120,-2997,6698,0,0,0,-63,203,121,244.6,1609.1,0.007,0.109,1.108,2.816,-0.562,-3.466,242.7,1,-0.6619,-0.2732,-0.0279,0.6975,0.0,-nan,0.2
165303,2026-08-29_06-24-19.304-240,v3.5.7,3.51,12.0,400,1155,-2831,6511,-15,-3072,6728,-47,-3197,6565,-96,-3009,6706,0,0,0,-49,188,141,240.1,1579.3,0.009,0.057,1.121,1.636,-0.516,-2.478,238.9,1,-0.6635,-0.2749,-0.0261,0.6954,0.0,-nan,0.2
165346,2026-08-29_06-24-19.348-240,v3.5.7,3.51,12.0,400,1155,-2831,6511,13,-3067,6723,-47,-3197,6565,-67,-3004,6701,0,0,0,-20,193,136,236.9,1558.9,0.019,0.013,1.122,8.085,-0.891,-2.809,236.3,1,-0.6631,-0.2822,-0.0189,0.6930,0.0,-nan,0.2
165390,2026-08-29_06-24-19.394-240,v3.5.7,3.51,12.0,400,1207,-2827,6511,13,-3067,6723,4,-3194,6573,-67,-3004,6701,0,0,0,-71,190,128,239.8,1577.9,-0.003,0.189,1.116,-0.900,-0.516,-3.215,238.7,1,-0.6662,-0.2818,-0.0190,0.6902,0.0,-nan,0.2
165419,2026-08-29_06-24-19.421-240,v3.5.7,3.51,12.0,400,1248,-2828,6508,75,-3057,6727,45,-3196,6576,-4,-2995,6704,0,0,0,-49,201,128,243.3,1600.5,0.004,0.044,1.120,-5.465,-0.516,-4.278,241.6,1,-0.6718,-0.2776,-0.0227,0.6863,0.0,-nan,0.2
165460,2026-08-29_06-24-19.464-240,v3.5.7,3.51,12.0,400,1248,-2828,6508,73,-3080,6724,45,-3196,6576,-6,-3017,6701,0,0,0,-51,179,125,224.2,1475.0,0.014,0.124,1.106,-2.728,-0.703,-3.819,225.6,1,-0.6761,-0.2758,-0.0244,0.6829,0.0,-nan,0.2
165508,2026-08-29_06-24-20.509-240,v3.5.7,3.51,12.0,400,1246,-2821,6473,73,-3080,6724,49,-3188,6541,-6,-3017,6701,0,0,0,-55,171,160,240.6,1582.6,0.013,0.062,1.118,-1.593,-0.703,-3.447,239.3,1,-0.6796,-0.2749,-0.0252,0.6797,0.0,-nan,0.2
165538,2026-08-29_06-24-20.539-240,v3.5.7,3.51,12.0,400,1211,-2824,6466,83,-3071,6752,15,-3190,6529,3,-3008,6729,0,0,0,-12,182,200,270.7,1780.8,0.023,0.024,1.121,-0.421,-0.719,-2.229,264.6,1,-0.6816,-0.2750,-0.0254,0.6776,0.0,-nan,0.2
165566,2026-08-29_06-24-20.569-240,v3.5.7,3.51,12.0,400,1246,-2847,6510,83,-3071,6752,43,-3215,6578,3,-3008,6729,0,0,0,-40,207,151,259.3,1706.1,0.016,0.115,1.110,-3.788,-0.703,-4.092,255.1,1,-0.6863,-0.2723,-0.0279,0.6738,0.0,-nan,0.2
165614,2026-08-29_06-24-20.617-240,v3.5.7,3.51,12.0,400,1246,-2847,6510,59,-3038,6725,43,-3215,6578,-21,-2975,6702,0,0,0,-64,240,124,277.6,1826.4,0.009,0.073,1.116,-4.158,-0.953,-3.608,270.4,1,-0.6908,-0.2694,-0.0310,0.6703,0.0,-nan,0.2
165642,2026-08-29_06-24-20.643-240,v3.5.7,3.51,12.0,400,1229,-2838,6501,66,-3072,6719,27,-3205,6566,-13,-3009,6696,0,0,0,-40,196,130,238.6,1569.5,-0.001,-0.017,1.101,0.901,-0.688,-1.440,237.7,1,-0.6917,-0.2706,-0.0304,0.6689,0.0,-nan,0.2
165684,2026-08-29_06-24-20.687-240,v3.5.7,3.51,12.0,400,1228,-2829,6496,66,-3072,6719,27,-3196,6561,-13,-3009,6696,0,0,0,-40,187,135,234.1,1540.0,0.003,0.060,1.116,-2.631,-0.172,-3.244,233.9,1,-0.6953,-0.2684,-0.0317,0.6660,0.0,-nan,0.2
165716,2026-08-29_06-24-20.718-240,v3.5.7,3.51,12.0,400,1228,-2829,6496,67,-3086,6724,27,-3196,6561,-12,-3023,6701,0,0,0,-39,173,140,225.9,1486.5,-0.006,0.108,1.115,-2.990,-0.531,-3.398,227.1,1,-0.6991,-0.2662,-0.0335,0.6628,0.0,-nan,0.2
165745,2026-08-29_06-24-20.749-240,v3.5.7,3.51,12.0,400,1225,-2831,6500,67,-3086,6724,24,-3198,6565,-12,-3023,6701,0,0,0,-36,175,136,224.5,1477.2,-0.015,0.059,1.095,-2.541,-1.078,-1.871,225.9,1,-0.7015,-0.2647,-0.0360,0.6607,0.0,-nan,0.2
165775,2026-08-29_06-24-20.776-240,v3.5.7,3.51,12.0,400,1234,-2802,6499,57,-3064,6734,33,-3169,6565,-23,-3001,6711,0,0,0,-56,168,146,229.5,1510.0,0.002,0.052,1.118,-4.103,-0.703,-3.513,230.1,1,-0.7057,-0.2616,-0.0389,0.6572,0.0,-nan,0.2
165823,2026-08-29_06-24-20.824-240,v3.5.7,3.51,12.0,400,1234,-2802,6499,60,-3072,6716,33,-3169,6565,-20,-3009,6693,0,0,0,-53,160,128,211.6,1392.4,-0.004,0.089,1.115,-0.705,-0.812,-3.815,215.1,1,-0.7091,-0.2617,-0.0390,0.6536,0.0,-nan,0.2
165856,2026-08-29_06-24-20.859-240,v3.5.7,3.51,12.0,400,1237,-2837,6498,60,-3072,6716,36,-3204,6565,-20,-3009,6693,0,0,0,-56,195,128,239.9,1578.2,0.007,0.085,1.119,-3.277,-0.922,-3.394,238.8,1,-0.7129,-0.2594,-0.0414,0.6502,0.0,-nan,0.2
165889,2026-08-29_06-24-20.891-240,v3.5.7,3.51,12.0,400,1257,-2830,6500,60,-3084,6718,55,-3198,6569,-19,-3021,6695,0,0,0,-74,177,126,229.5,1510.0,0.021,0.054,1.112,-3.494,-0.953,-3.864,230.1,1,-0.7171,-0.2571,-0.0438,0.6463,0.0,-nan,0.0
165932,2026-08-29_06-24-20.934-240,v3.5.7,3.51,12.0,400,1257,-2830,6500,55,-3074,6729,55,-3198,6569,-25,-3011,6706,0,0,0,-80,187,137,245.2,1613.4,-0.010,0.072,1.119,-2.762,-0.734,-3.439,243.3,1,-0.7208,-0.2552,-0.0457,0.6429,0.0,-nan,0.2
165975,2026-08-29_06-24-20.976-240,v3.5.7,3.51,12.0,400,1221,-2827,6508,55,-3074,6729,18,-3194,6572,-25,-3011,6706,0,0,0,-43,183,134,230.9,1518.8,0.017,0.095,1.111,-2.114,-0.969,-3.380,231.2,1,-0.7241,-0.2540,-0.0472,0.6394,0.0,-nan,0.2
166003,2026-08-29_06-24-20.005-240,v3.5.7,3.51,12.0,400,1239,-2828,6499,40,-3050,6729,38,-3195,6566,-40,-2987,6706,0,0,0,-78,208,140,262.6,1727.5,0.014,0.076,1.117,-2.653,-0.750,-3.845,257.8,1,-0.7280,-0.2522,-0.0488,0.6356,0.0,-nan,0.2
166038,2026-08-29_06-24-20.039-240,v3.5.7,3.51,12.0,400,1239,-2828,6499,40,-3050,6729,38,-3195,6566,-40,-2987,6706,0,0,0,-78,208,140,262.6,1727.5,0.000,0.065,1.121,-3.912,-0.641,-3.713,257.8,1,-0.7322,-0.2492,-0.0513,0.6318,0.0,-nan,0.2
166066,2026-08-29_06-24-20.067-240,v3.5.7,3.51,12.0,400,1214,-2833,6496,58,-3079,6705,13,-3200,6559,-21,-3016,6682,0,0,0,-34,184,123,223.9,1473.2,0.004,0.098,1.119,-3.520,-0.438,-3.597,225.4,1,-0.7361,-0.2463,-0.0534,0.6282,0.0,-nan,0.2
166095,2026-08-29_06-24-20.099-240,v3.5.7,3.51,12.0,400,1229,-2824,6507,58,-3079,6705,26,-3191,6572,-21,-3016,6682,0,0,0,-47,175,110,212.0,1394.6,0.002,0.048,1.121,-4.436,-0.641,-3.465,215.3,1,-0.7402,-0.2427,-0.0565,0.6245,0.0,-nan,0.2
166139,2026-08-29_06-24-20.141-240,v3.5.7,3.51,12.0,400,1229,-2824,6507,44,-3077,6728,26,-3191,6572,-36,-3014,6705,0,0,0,-62,177,133,229.9,1512.6,0.009,0.081,1.109,-1.819,-0.750,-3.370,230.4,1,-0.7433,-0.2416,-0.0576,0.6211,0.0,-nan,0.2
166169,2026-08-29_06-24-20.171-240,v3.5.7,3.51,12.0,400,1227,-2809,6522,63,-3074,6717,22,-3177,6586,-16,-3011,6694,0,0,0,-38,166,108,201.7,1326.7,0.009,0.076,1.117,-1.465,-0.609,-3.069,206.7,1,-0.7461,-0.2408,-0.0584,0.6180,0.0,-nan,0.0
166216,2026-08-29_06-24-20.217-240,v3.5.7,3.51,12.0,400,1229,-2824,6500,65,-3080,6720,28,-3191,6565,-14,-3017,6697,0,0,0,-42,174,132,222.4,1463.2,0.013,0.091,1.122,-4.870,-1.172,-3.810,224.1,1,-0.7504,-0.2372,-0.0621,0.6138,0.0,-nan,0.2
166268,2026-08-29_06-24-20.269-240,v3.5.7,3.51,12.0,400,1224,-2833,6509,65,-3080,6720,21,-3200,6573,-14,-3017,6697,0,0,0,-35,183,124,223.8,1472.4,0.007,0.058,1.118,-0.167,-0.938,-2.790,225.3,1,-0.7526,-0.2377,-0.0623,0.6109,0.0,-nan,0.2
166303,2026-08-29_06-24-20.304-240,v3.5.7,3.51,12.0,400,1224,-2833,6509,47,-3079,6721,21,-3200,6573,-33,-3016,6698,0,0,0,-54,184,125,228.9,1505.9,0.005,0.101,1.116,-2.472,-1.047,-3.156,229.6,1,-0.7557,-0.2362,-0.0642,0.6075,0.0,-nan,0.2
166333,2026-08-29_06-24-20.334-240,v3.5.7,3.51,12.0,400,1218,-2827,6496,42,-3075,6717,17,-3194,6560,-38,-3012,6694,0,0,0,-55,182,134,232.6,1530.3,0.024,0.095,1.118,-6.342,-1.516,-3.610,232.7,1,-0.7602,-0.2314,-0.0694,0.6031,0.0,-nan,0.2
166388,2026-08-29_06-24-20.389-240,v3.5.7,3.51,12.0,400,1207,-2826,6516,42,-3075,6717,3,-3193,6578,-38,-3012,6694,0,0,0,-41,181,116,218.9,1439.8,0.003,0.081,1.116,-5.771,-0.656,-4.120,221.1,1,-0.7649,-0.2266,-0.0732,0.5986,0.0,-nan,0.0
166417,2026-08-29_06-24-20.418-240,v3.5.7,3.51,12.0,400,1181,-2823,6512,-4,-3071,6723,-21,-3190,6570,-85,-3008,6701,0,0,0,-64,182,131,233.2,1534.2,0.004,0.004,1.120,-3.498,-1.234,-2.653,233.2,1,-0.7677,-0.2242,-0.0763,0.5954,0.0,-nan,0.2
166462,2026-08-29_06-24-20.464-240,v3.5.7,3.51,12.0,400,1181,-2823,6512,-6,-3076,6732,-21,-3190,6570,-87,-3013,6710,0,0,0,-66,177,140,235.1,1546.9,0.038,0.074,1.109,-1.262,-1.078,-3.186,234.8,1,-0.7704,-0.2238,-0.0774,0.5920,0.0,-nan,0.2
166499,2026-08-29_06-24-21.501-240,v3.5.7,3.51,12.0,400,1178,-2816,6507,-6,-3076,6732,-23,-3183,6564,-87,-3013,6710,0,0,0,-64,170,146,233.0,1533.2,-0.009,0.044,1.121,-3.434,-0.234,-2.979,233.0,1,-0.7736,-0.2208,-0.0793,0.5887,0.0,-nan,0.2
166529,2026-08-29_06-24-21.531-240,v3.5.7,3.51,12.0,400,1164,-2819,6509,6,-3066,6732,-37,-3185,6564,-75,-3003,6710,0,0,0,-38,182,146,236.4,1555.2,-0.008,0.104,1.121,-4.621,-0.672,-3.160,235.8,1,-0.7771,-0.2169,-0.0825,0.5850,0.0,-nan,0.0
166560,2026-08-29_06-24-21.562-240,v3.5.7,3.51,12.0,400,1164,-2819,6509,6,-3066,6732,-37,-3185,6564,-75,-3003,6710,0,0,0,-38,182,146,236.4,1555.2,0.003,0.041,1.120,-8.050,-1.656,-3.850,235.8,1,-0.7819,-0.2104,-0.0889,0.5800,0.0,-nan,0.2
166590,2026-08-29_06-24-21.594-240,v3.5.7,3.51,12.0,400,1138,-2828,6508,-24,-3086,6718,-63,-3194,6559,-105,-3023,6696,0,0,0,-42,171,137,223.1,1467.8,-0.002,-0.021,1.117,-0.258,-0.969,-3.478,224.7,1,-0.7844,-0.2110,-0.0892,0.5764,0.0,-nan,0.2
166620,2026-08-29_06-24-21.621-240,v3.5.7,3.51,12.0,400,1143,-2812,6523,-24,-3086,6718,-61,-3178,6575,-105,-3023,6696,0,0,0,-44,155,121,201.5,1325.7,0.006,0.068,1.115,0.724,-1.094,-3.215,206.6,1,-0.7864,-0.2127,-0.0889,0.5731,0.0,-nan,0.2
166669,2026-08-29_06-24-21.671-240,v3.5.7,3.51,12.0,400,1143,-2812,6523,-31,-3059,6723,-61,-3178,6575,-112,-2996,6701,0,0,0,-51,182,126,227.2,1494.5,-0.000,0.105,1.120,-0.708,-0.875,-3.633,228.1,1,-0.7891,-0.2128,-0.0892,0.5692,0.0,-nan,0.0
166696,2026-08-29_06-24-21.697-240,v3.5.7,3.51,12.0,400,1163,-2822,6523,-7,-3088,6710,-41,-3189,6578,-87,-3025,6688,0,0,0,-46,164,110,202.8,1334.0,0.000,0.052,1.117,-2.010,-0.953,-3.638,207.6,1,-0.7922,-0.2116,-0.0906,0.5652,0.0,-nan,0.2
166740,2026-08-29_06-24-21.744-240,v3.5.7,3.51,12.0,400,1160,-2826,6509,-7,-3088,6710,-41,-3192,6564,-87,-3025,6688,0,0,0,-46,167,124,213.0,1401.5,0.018,0.067,1.115,-1.234,-0.500,-3.762,216.2,1,-0.7951,-0.2110,-0.0910,0.5612,0.0,-nan,0.2
166775,2026-08-29_06-24-21.777-240,v3.5.7,3.51,12.0,400,1160,-2826,6509,-9,-3074,6724,-41,-3192,6564,-90,-3011,6702,0,0,0,-49,181,138,232.8,1531.7,0.004,0.066,1.119,-1.428,-0.344,-3.036,232.8,1,-0.7976,-0.2099,-0.0915,0.5580,0.0,-nan,0.2
166803,2026-08-29_06-24-21.804-240,v3.5.7,3.51,12.0,400,1175,-2816,6493,-18,-3046,6723,-24,-3182,6550,-99,-2983,6701,0,0,0,-75,199,151,260.8,1715.9,0.002,0.061,1.118,-0.711,-0.625,-3.450,256.3,1,-0.8002,-0.2098,-0.0917,0.5544,0.0,-nan,0.2
166851,2026-08-29_06-24-21.852-240,v3.5.7,3.51,12.0,400,1183,-2820,6502,-18,-3046,6723,-17,-3187,6560,-99,-2983,6701,0,0,0,-82,204,141,261.2,1718.4,0.014,0.095,1.116,-2.487,-0.594,-3.652,256.7,1,-0.8033,-0.2079,-0.0931,0.5503,0.0,-nan,0.2
166880,2026-08-29_06-24-21.884-240,v3.5.7,3.51,12.0,400,1183,-2820,6502,6,-3076,6741,-17,-3187,6560,-75,-3013,6719,0,0,0,-58,174,159,242.7,1597.0,0.009,0.067,1.116,-2.603,-0.750,-3.946,241.2,1,-0.8066,-0.2060,-0.0946,0.5459,0.0,-nan,0.2
166910,2026-08-29_06-24-21.912-240,v3.5.7,3.51,12.0,400,1191,-2820,6505,6,-3076,6741,-10,-3187,6564,-75,-3013,6719,0,0,0,-65,174,155,241.9,1591.6,0.006,0.047,1.118,-3.220,-0.234,-4.203,240.5,1,-0.8103,-0.2032,-0.0959,0.5412,0.0,-nan,0.2
166939,2026-08-29_06-24-21.941-240,v3.5.7,3.51,12.0,400,1186,-2816,6502,18,-3063,6716,-14,-3183,6561,-62,-3000,6694,0,0,0,-48,183,133,231.3,1521.5,-0.001,0.086,1.117,-1.968,-0.719,-3.627,231.5,1,-0.8132,-0.2019,-0.0970,0.5372,0.0,-nan,0.0
166986,2026-08-29_06-24-21.988-240,v3.5.7,3.51,12.0,400,1186,-2816,6502,4,-3076,6721,-14,-3183,6561,-76,-3013,6699,0,0,0,-62,170,138,227.6,1497.2,0.013,0.058,1.120,-0.410,-0.344,-3.210,228.4,1,-0.8154,-0.2019,-0.0968,0.5338,0.0,-nan,0.0
167032,2026-08-29_06-24-21.034-240,v3.5.7,3.51,12.0,400,1189,-2817,6488,4,-3076,6721,-9,-3183,6547,-76,-3013,6699,0,0,0,-67,170,152,237.7,1563.7,0.011,0.063,1.117,-2.017,-0.312,-3.274,236.9,1,-0.8181,-0.2002,-0.0977,0.5302,0.0,-nan,0.2
167060,2026-08-29_06-24-21.061-240,v3.5.7,3.51,12.0,400,1180,-2822,6500,6,-3081,6733,-20,-3188,6558,-74,-3018,6711,0,0,0,-54,170,153,235.0,1546.1,0.015,0.089,1.116,-3.472,-0.688,-3.733,234.7,1,-0.8214,-0.1973,-0.0997,0.5258,0.0,-nan,0.2
167093,2026-08-29_06-24-21.094-240,v3.5.7,3.51,12.0,400,1180,-2822,6500,6,-3081,6733,-20,-3188,6558,-74,-3018,6711,0,0,0,-54,170,153,235.0,1546.1,0.012,0.050,1.117,-2.258,-0.391,-2.630,234.7,1,-0.8236,-0.1954,-0.1009,0.5227,0.0,-nan,0.2
167122,2026-08-29_06-24-21.124-240,v3.5.7,3.51,12.0,400,1165,-2812,6500,-4,-3074,6715,-35,-3178,6556,-85,-3011,6693,0,0,0,-50,167,137,221.7,1458.7,0.009,0.068,1.116,-2.441,-0.531,-3.354,223.5,1,-0.8264,-0.1934,-0.1022,0.5189,0.0,-nan,0.0
167153,2026-08-29_06-24-21.154-240,v3.5.7,3.51,12.0,400,1175,-2804,6513,-4,-3074,6715,-27,-3171,6570,-85,-3011,6693,0,0,0,-58,160,123,210.0,1381.5,0.009,0.075,1.115,-2.727,-0.562,-3.567,213.7,1,-0.8293,-0.1912,-0.1037,0.5148,0.0,-nan,0.2
167197,2026-08-29_06-24-21.198-240,v3.5.7,3.51,12.0,400,1175,-2804,6513,13,-3074,6698,-27,-3171,6570,-67,-3011,6676,0,0,0,-40,160,106,196.1,1289.8,0.014,0.068,1.117,-1.282,-0.625,-4.221,202.0,1,-0.8323,-0.1906,-0.1041,0.5101,0.0,-nan,0.2
167228,2026-08-29_06-24-21.229-240,v3.5.7,3.51,12.0,400,1187,-2817,6496,3,-3049,6714,-12,-3183,6555,-78,-2986,6692,0,0,0,-66,197,137,248.9,1637.3,0.011,0.067,1.118,-3.172,-0.328,-3.401,246.3,1,-0.8352,-0.1877,-0.1057,0.5061,0.0,-nan,0.2
167262,2026-08-29_06-24-21.263-240,v3.5.7,3.51,12.0,400,1189,-2825,6501,3,-3049,6714,-11,-3192,6560,-78,-2986,6692,0,0,0,-67,206,132,253.7,1668.9,0.000,0.057,1.118,-1.447,-0.922,-4.288,250.3,1,-0.8381,-0.1871,-0.1065,0.5012,0.0,-nan,0.2
167300,2026-08-29_06-24-21.304-240,v3.5.7,3.51,12.0,400,1189,-2825,6501,6,-3077,6717,-11,-3192,6560,-74,-3014,6695,0,0,0,-63,178,135,232.1,1527.1,0.010,0.090,1.115,-5.125,-0.734,-1.064,232.3,1,-0.8399,-0.1821,-0.1102,0.4993,0.0,-nan,0.2
167331,2026-08-29_06-24-21.332-240,v3.5.7,3.51,12.0,400,1188,-2839,6500,14,-3072,6710,-12,-3206,6559,-66,-3009,6688,0,0,0,-54,197,129,241.6,1589.4,0.012,0.053,1.116,-0.930,-0.703,-3.486,240.2,1,-0.8422,-0.1818,-0.1107,0.4954,0.0,-nan,0.2
167380,2026-08-29_06-24-21.384-240,v3.5.7,3.51,12.0,400,1194,-2820,6504,14,-3072,6710,-7,-3187,6564,-66,-3009,6688,0,0,0,-59,178,124,224.8,1479.0,0.004,0.115,1.119,1.052,-0.547,-4.522,226.1,1,-0.8447,-0.1836,-0.1095,0.4907,0.0,-nan,0.2
167410,2026-08-29_06-24-21.411-240,v3.5.7,3.51,12.0,400,1194,-2820,6504,30,-3062,6724,-7,-3187,6564,-50,-2999,6702,0,0,0,-43,188,138,237.1,1560.2,0.001,0.070,1.114,-1.291,-0.719,-3.892,236.5,1,-0.8473,-0.1830,-0.1101,0.4862,0.0,-nan,0.2
167460,2026-08-29_06-24-21.464-240,v3.5.7,3.51,12.0,400,1215,-2818,6508,21,-3062,6716,12,-3185,6571,-59,-2999,6694,0,0,0,-71,186,123,234.0,1539.6,0.012,0.068,1.116,1.145,-0.203,-5.641,233.8,1,-0.8505,-0.1849,-0.1083,0.4804,0.0,-nan,0.2
167494,2026-08-29_06-24-22.495-240,v3.5.7,3.51,12.0,400,1216,-2820,6503,21,-3062,6716,14,-3187,6566,-59,-2999,6694,0,0,0,-73,188,128,238.9,1571.5,0.001,0.061,1.120,-0.671,-0.469,-2.788,237.9,1,-0.8523,-0.1846,-0.1086,0.4773,0.0,-nan,0.2
167523,2026-08-29_06-24-22.524-240,v3.5.7,3.51,12.0,400,1204,-2790,6496,44,-3063,6709,3,-3157,6557,-36,-3000,6687,0,0,0,-39,157,130,207.5,1365.3,-0.002,0.083,1.117,-0.566,-0.516,-3.480,211.6,1,-0.8544,-0.1846,-0.1086,0.4734,0.0,-nan,0.2
167562,2026-08-29_06-24-22.564-240,v3.5.7,3.51,12.0,400,1204,-2790,6496,47,-3066,6716,3,-3157,6557,-33,-3003,6693,0,0,0,-36,154,136,208.6,1372.3,0.013,0.067,1.114,-2.446,-0.984,-4.018,212.5,1,-0.8572,-0.1829,-0.1101,0.4686,0.0,-nan,0.2
167613,2026-08-29_06-24-22.614-240,v3.5.7,3.51,12.0,400,1216,-2830,6498,47,-3066,6716,15,-3197,6561,-33,-3003,6693,0,0,0,-48,194,132,239.5,1575.7,0.005,0.068,1.118,-2.509,-1.141,-3.658,238.5,1,-0.8598,-0.1811,-0.1120,0.4641,0.0,-nan,0.2
167643,2026-08-29_06-24-22.644-240,v3.5.7,3.51,12.0,400,1228,-2809,6500,21,-3046,6713,27,-3176,6565,-59,-2983,6691,0,0,0,-86,193,126,246.0,1618.5,0.010,0.077,1.116,-2.128,-0.906,-3.372,243.9,1,-0.8621,-0.1796,-0.1134,0.4600,0.0,-nan,0.2
167673,2026-08-29_06-24-22.675-240,v3.5.7,3.51,12.0,400,1228,-2809,6500,21,-3046,6713,27,-3176,6565,-59,-2983,6691,0,0,0,-86,193,126,246.0,1618.5,0.014,0.064,1.120,-2.133,-0.922,-3.820,243.9,1,-0.8647,-0.1781,-0.1147,0.4554,0.0,-nan,0.2
167701,2026-08-29_06-24-22.703-240,v3.5.7,3.51,12.0,400,1223,-2805,6484,47,-3083,6717,24,-3172,6549,-33,-3020,6694,0,0,0,-57,152,145,217.7,1432.0,0.013,0.077,1.115,-2.672,-0.531,-3.690,220.1,1,-0.8674,-0.1758,-0.1159,0.4509,0.0,-nan,0.2
167735,2026-08-29_06-24-22.739-240,v3.5.7,3.51,12.0,400,1226,-2818,6532,47,-3083,6717,19,-3186,6596,-33,-3020,6694,0,0,0,-52,166,98,199.7,1313.6,0.008,0.066,1.114,-2.338,-0.781,-3.269,205.0,1,-0.8696,-0.1740,-0.1173,0.4469,0.0,-nan,0.2
167774,2026-08-29_06-24-22.775-240,v3.5.7,3.51,12.0,400,1226,-2818,6532,48,-3077,6725,19,-3186,6596,-32,-3014,6702,0,0,0,-51,172,106,208.4,1370.9,0.006,0.063,1.116,-2.226,-0.688,-3.388,212.3,1,-0.8719,-0.1722,-0.1185,0.4428,0.0,-nan,0.2
167803,2026-08-29_06-24-22.804-240,v3.5.7,3.51,12.0,400,1228,-2839,6502,47,-3075,6719,26,-3206,6567,-33,-3012,6696,0,0,0,-59,194,129,240.3,1581.1,0.006,0.082,1.120,-2.641,-0.734,-3.419,239.1,1,-0.8743,-0.1700,-0.1200,0.4385,0.0,-nan,0.2
167846,2026-08-29_06-24-22.849-240,v3.5.7,3.51,12.0,400,1229,-2815,6494,47,-3075,6719,29,-3182,6559,-33,-3012,6696,0,0,0,-62,170,137,227.0,1493.2,0.002,0.058,1.115,-3.262,-0.516,-3.619,227.9,1,-0.8769,-0.1671,-0.1215,0.4340,0.0,-nan,0.2
167883,2026-08-29_06-24-22.884-240,v3.5.7,3.51,12.0,400,1229,-2815,6494,51,-3067,6705,29,-3182,6559,-29,-3004,6683,0,0,0,-58,178,124,224.6,1477.3,0.003,0.113,1.116,-5.244,-1.250,-3.864,225.9,1,-0.8799,-0.1624,-0.1249,0.4287,0.0,-nan,0.2
167913,2026-08-29_06-24-22.914-240,v3.5.7,3.51,12.0,400,1221,-2816,6501,33,-3081,6714,19,-3183,6565,-47,-3018,6692,0,0,0,-66,165,127,218.4,1437.0,0.008,0.054,1.115,-7.617,-0.844,-4.100,220.8,1,-0.8835,-0.1548,-0.1290,0.4229,0.0,-nan,0.0
167964,2026-08-29_06-24-22.965-240,v3.5.7,3.51,12.0,400,1194,-2817,6504,33,-3081,6714,-7,-3184,6564,-47,-3018,6692,0,0,0,-40,166,128,213.4,1404.0,0.004,0.080,1.119,1.017,-0.641,-2.770,216.5,1,-0.8847,-0.1565,-0.1285,0.4199,0.0,-nan,0.2
167993,2026-08-29_06-24-22.994-240,v3.5.7,3.51,12.0,400,1203,-2819,6500,25,-3080,6718,2,-3186,6561,-55,-3017,6696,0,0,0,-57,169,135,223.7,1471.6,0.003,0.080,1.120,-1.375,-0.859,-3.194,225.2,1,-0.8865,-0.1558,-0.1295,0.4160,0.0,-nan,0.2
168036,2026-08-29_06-24-22.038-240,v3.5.7,3.51,12.0,400,1203,-2819,6500,3,-3074,6712,2,-3186,6561,-77,-3011,6690,0,0,0,-79,175,129,231.3,1521.8,0.005,0.059,1.119,-0.358,-0.344,-3.276,231.6,1,-0.8883,-0.1558,-0.1293,0.4123,0.0,-nan,0.2
168085,2026-08-29_06-24-22.089-240,v3.5.7,3.51,12.0,400,1227,-2827,6496,3,-3074,6712,26,-3194,6561,-77,-3011,6690,0,0,0,-103,183,129,246.5,1621.4,0.016,0.080,1.118,-4.450,-0.969,-3.583,244.3,1,-0.8908,-0.1518,-0.1319,0.4074,0.0,-nan,0.2
168131,2026-08-29_06-24-22.132-240,v3.5.7,3.51,12.0,400,1205,-2824,6484,32,-3084,6733,6,-3190,6546,-48,-3021,6710,0,0,0,-54,169,164,241.6,1589.5,0.003,0.106,1.116,1.515,-0.922,-3.220,240.2,1,-0.8921,-0.1542,-0.1315,0.4039,0.0,-nan,0.2
168160,2026-08-29_06-24-22.164-240,v3.5.7,3.51,12.0,400,1189,-2821,6497,45,-3076,6713,-11,-3187,6556,-35,-3013,6690,0,0,0,-24,174,134,220.9,1453.5,0.003,0.060,1.116,-1.200,-0.484,-3.204,222.9,1,-0.8939,-0.1534,-0.1319,0.4001,0.0,-nan,0.2
168199,2026-08-29_06-24-22.201-240,v3.5.7,3.51,12.0,400,1189,-2821,6497,45,-3076,6713,-11,-3187,6556,-35,-3013,6690,0,0,0,-24,174,134,220.9,1453.5,0.010,0.106,1.117,0.882,-1.172,-3.035,222.9,1,-0.8951,-0.1553,-0.1321,0.3966,0.0,-nan,0.2
168247,2026-08-29_06-24-22.248-240,v3.5.7,3.51,12.0,400,1226,-2811,6491,44,-3068,6732,26,-3178,6556,-36,-3005,6709,0,0,0,-62,173,153,239.1,1573.2,0.008,0.013,1.107,-28.332,-0.531,-9.479,238.1,1,-0.9046,-0.1251,-0.1448,0.3810,0.0,-nan,0.2
168275,2026-08-29_06-24-22.279-240,v3.5.7,3.51,12.0,400,1182,-2819,6516,-33,-3078,6718,-21,-3186,6574,-114,-3015,6696,0,0,0,-93,171,122,229.7,1511.4,0.027,-0.337,1.101,4.638,-1.219,-1.685,230.2,1,-0.9044,-0.1310,-0.1437,0.3798,0.0,-nan,0.2
168317,2026-08-29_06-24-22.318-240,v3.5.7,3.51,12.0,400,1169,-2822,6503,-33,-3078,6718,-31,-3188,6559,-114,-3015,6696,0,0,0,-83,173,137,235.8,1551.1,-0.011,0.151,1.117,17.346,-1.562,-0.705,235.3,1,-0.9015,-0.1513,-0.1369,0.3818,0.0,-nan,0.2
168359,2026-08-29_06-24-22.361-240,v3.5.7,3.51,12.0,400,1169,-2822,6503,18,-3072,6725,-31,-3188,6559,-62,-3009,6703,0,0,0,-31,179,144,231.8,1525.1,0.028,0.100,1.109,9.193,-1.078,-2.421,232.0,1,-0.9007,-0.1624,-0.1331,0.3804,0.0,-nan,0.0
168387,2026-08-29_06-24-22.389-240,v3.5.7,3.51,12.0,400,1265,-2825,6484,108,-3079,6714,66,-3192,6555,28,-3017,6691,0,0,0,-38,175,136,224.9,1479.4,-0.108,-0.147,0.927,14.313,-6.172,4.510,226.2,1,-0.8944,-0.1804,-0.1341,0.3866,0.0,-nan,0.2
168438,2026-08-29_06-24-22.439-240,v3.5.7,3.51,12.0,400,1348,-2819,6488,108,-3079,6714,148,-3188,6571,28,-3017,6691,0,0,0,-120,171,120,240.9,1585.0,0.010,0.119,1.126,2.585,-2.266,-4.523,239.6,1,-0.8957,-0.1849,-0.1343,0.3815,0.0,-nan,0.2
168467,2026-08-29_06-24-22.468-240,v3.5.7,3.51,12.0,400,1421,-2819,6468,193,-3067,6709,223,-3188,6562,115,-3005,6685,0,0,0,-108,183,123,245.5,1615.3,0.039,0.013,1.108,9.665,-1.406,-1.322,243.5,1,-0.8938,-0.1964,-0.1309,0.3813,0.0,-nan,0.2
168515,2026-08-29_06-24-23.519-240,v3.5.7,3.51,12.0,400,1421,-2819,6468,314,-3074,6717,223,-3188,6562,238,-3013,6692,0,0,0,15,175,130,218.5,1437.6,0.008,0.357,1.089,24.446,-3.609,-0.564,220.8,1,-0.8871,-0.2252,-0.1230,0.3836,0.0,-nan,0.2
168550,2026-08-29_06-24-23.552-240,v3.5.7,3.51,12.0,400,1540,-2823,6441,314,-3074,6717,346,-3194,6554,238,-3013,6692,0,0,0,-108,181,138,251.9,1657.4,0.034,0.223,1.117,-24.669,-0.859,-6.759,248.9,1,-0.8968,-0.1990,-0.1337,0.3719,0.0,-nan,0.2
168579,2026-08-29_06-24-23.581-240,v3.5.7,3.51,12.0,400,1548,-2827,6443,413,-3074,6715,353,-3198,6557,338,-3014,6689,0,0,0,-15,184,132,226.9,1493.1,0.012,-0.098,1.115,-16.253,-0.641,-5.682,227.9,1,-0.9032,-0.1818,-0.1405,0.3626,0.0,-nan,0.0
168615,2026-08-29_06-24-23.617-240,v3.5.7,3.51,12.0,400,1548,-2827,6443,330,-3073,6718,353,-3198,6557,254,-3012,6693,0,0,0,-99,186,136,250.8,1649.9,-0.019,0.073,1.122,5.858,-0.594,-1.416,247.9,1,-0.9024,-0.1887,-0.1381,0.3619,0.0,-nan,0.2
168668,2026-08-29_06-24-23.670-240,v3.5.7,3.51,12.0,400,1489,-2823,6452,330,-3073,6718,293,-3193,6557,254,-3012,6693,0,0,0,-39,181,136,229.7,1511.4,0.008,0.114,1.116,2.613,-1.094,-2.880,230.3,1,-0.9029,-0.1924,-0.1374,0.3589,0.0,-nan,0.2
168698,2026-08-29_06-24-23.699-240,v3.5.7,3.51,12.0,400,1534,-2817,6441,356,-3060,6722,340,-3188,6553,280,-3000,6697,0,0,0,-60,188,144,244.3,1607.2,0.011,0.186,1.123,-2.034,-0.922,-3.210,242.5,1,-0.9047,-0.1909,-0.1385,0.3547,0.0,-nan,0.2
168729,2026-08-29_06-24-23.731-240,v3.5.7,3.51,12.0,400,1534,-2817,6441,356,-3060,6722,340,-3188,6553,280,-3000,6697,0,0,0,-60,188,144,244.3,1607.2,0.010,0.137,1.112,-4.252,-0.828,-4.708,242.5,1,-0.9077,-0.1870,-0.1401,0.3485,0.0,-nan,0.0
168779,2026-08-29_06-24-23.781-240,v3.5.7,3.51,12.0,400,1538,-2815,6453,375,-3064,6743,342,-3186,6565,299,-3004,6718,0,0,0,-43,182,153,241.6,1589.6,0.004,0.123,1.118,0.523,-0.453,-3.532,240.2,1,-0.9091,-0.1882,-0.1395,0.3445,0.0,-nan,0.2
168809,2026-08-29_06-24-23.811-240,v3.5.7,3.51,12.0,400,1572,-2822,6459,373,-3071,6709,375,-3194,6576,298,-3011,6684,0,0,0,-77,183,108,226.0,1486.9,0.004,0.108,1.113,2.706,-0.875,-3.313,227.1,1,-0.9098,-0.1921,-0.1384,0.3410,0.0,-nan,0.0
168841,2026-08-29_06-24-23.842-240,v3.5.7,3.51,12.0,400,1567,-2820,6444,373,-3071,6709,372,-3191,6561,298,-3011,6684,0,0,0,-74,180,123,230.2,1514.7,0.013,0.176,1.116,-2.367,-0.406,-3.974,230.7,1,-0.9120,-0.1900,-0.1389,0.3360,0.0,-nan,0.2
168884,2026-08-29_06-24-23.885-240,v3.5.7,3.51,12.0,400,1567,-2820,6444,362,-3057,6719,372,-3191,6561,286,-2997,6694,0,0,0,-86,194,133,250.4,1647.6,0.015,0.123,1.118,-0.594,-0.938,-3.247,247.6,1,-0.9134,-0.1901,-0.1393,0.3320,0.0,-nan,0.2
168910,2026-08-29_06-24-23.913-240,v3.5.7,3.51,12.0,400,1567,-2823,6446,402,-3063,6715,372,-3194,6563,327,-3003,6690,0,0,0,-45,191,127,233.7,1537.8,0.013,0.124,1.118,-2.848,-0.766,-3.714,233.6,1,-0.9155,-0.1876,-0.1404,0.3271,0.0,-nan,0.2
168957,2026-08-29_06-24-23.959-240,v3.5.7,3.51,12.0,400,1573,-2820,6421,402,-3063,6715,382,-3191,6539,327,-3003,6690,0,0,0,-55,188,151,247.3,1627.1,0.012,0.131,1.115,1.751,-0.766,-2.779,245.0,1,-0.9161,-0.1902,-0.1399,0.3240,0.0,-nan,0.2
